#   T(K)    C_v(k_B/fu)        Gamma     alpha_v*10^6(K^-1)   E_th(eV)                       P_th(GPa)
#                                                                         ----------------------------------------------
#                                                                          {sum G_i.U_iV}  {int G.C_v/V dT}    {G.U/V}
# ----------------------------------------------------------------------------------------------------------------------
    10           0.001          -1.003          -0.002           0.124           0.373          -0.000          -0.508
    20           0.036          -1.212          -0.130           0.124           0.373          -0.000          -0.614
    30           0.161          -1.331          -0.645           0.124           0.373          -0.001          -0.674
    40           0.373          -1.325          -1.488           0.125           0.372          -0.003          -0.672
    50           0.623          -1.278          -2.400           0.125           0.370          -0.005          -0.651
    60           0.878          -1.211          -3.202           0.126           0.366          -0.009          -0.620
    70           1.124          -1.126          -3.816           0.127           0.362          -0.014          -0.580
    80           1.363          -1.029          -4.225           0.128           0.357          -0.019          -0.535
    90           1.596          -0.923          -4.440           0.129           0.352          -0.024          -0.485
   100           1.827          -0.816          -4.489           0.130           0.347          -0.029          -0.433
   110           2.054          -0.711          -4.402           0.132           0.342          -0.034          -0.382
   120           2.278          -0.613          -4.211           0.134           0.337          -0.039          -0.334
   130           2.496          -0.524          -3.944           0.136           0.332          -0.044          -0.290
   140           2.706          -0.445          -3.625           0.138           0.328          -0.048          -0.250
   150           2.907          -0.374          -3.275           0.141           0.324          -0.052          -0.214
   160           3.098          -0.312          -2.909           0.143           0.320          -0.055          -0.182
   170           3.278          -0.257          -2.537           0.146           0.317          -0.058          -0.153
   180           3.447          -0.209          -2.168           0.149           0.314          -0.060          -0.127
   190           3.605          -0.167          -1.809           0.152           0.312          -0.063          -0.103
   200           3.753          -0.129          -1.463           0.155           0.310          -0.064          -0.082
   210           3.890          -0.097          -1.131           0.158           0.309          -0.066          -0.062
   220           4.017          -0.068          -0.817           0.162           0.307          -0.066          -0.044
   230           4.135          -0.042          -0.520           0.165           0.307          -0.067          -0.028
   240           4.244          -0.019          -0.240           0.169           0.306          -0.067          -0.013
   250           4.345           0.002           0.023           0.173           0.306          -0.067           0.001
   260           4.439           0.020           0.269           0.176           0.306          -0.067           0.014
   270           4.526           0.037           0.499           0.180           0.307          -0.066           0.027
   280           4.607           0.052           0.715           0.184           0.307          -0.066           0.039
   290           4.681           0.065           0.917           0.188           0.308          -0.065           0.050
   300           4.751           0.077           1.105           0.192           0.310          -0.063           0.060
   310           4.815           0.088           1.282           0.196           0.311          -0.062           0.071
   320           4.876           0.098           1.447           0.201           0.313          -0.060           0.080
   330           4.931           0.108           1.601           0.205           0.314          -0.058           0.090
   340           4.984           0.116           1.746           0.209           0.316          -0.056           0.099
   350           5.032           0.124           1.881           0.213           0.318          -0.054           0.108
   360           5.078           0.131           2.008           0.218           0.321          -0.052           0.116
   370           5.120           0.138           2.127           0.222           0.323          -0.049           0.125
   380           5.160           0.144           2.239           0.227           0.326          -0.047           0.133
   390           5.197           0.150           2.344           0.231           0.328          -0.044           0.141
   400           5.232           0.155           2.442           0.236           0.331          -0.041           0.149
   410           5.265           0.160           2.535           0.240           0.334          -0.038           0.156
   420           5.296           0.164           2.623           0.245           0.337          -0.035           0.164
   430           5.325           0.169           2.705           0.249           0.340          -0.032           0.171
   440           5.352           0.173           2.783           0.254           0.343          -0.029           0.178
   450           5.378           0.176           2.857           0.258           0.346          -0.025           0.185
   460           5.402           0.180           2.926           0.263           0.350          -0.022           0.192
   470           5.425           0.183           2.992           0.268           0.353          -0.018           0.199
   480           5.447           0.186           3.054           0.272           0.357          -0.015           0.206
   490           5.467           0.189           3.113           0.277           0.360          -0.011           0.213
   500           5.487           0.192           3.169           0.282           0.364          -0.008           0.220
   510           5.505           0.194           3.222           0.287           0.368          -0.004           0.227
   520           5.523           0.197           3.272           0.291           0.372           0.000           0.233
   530           5.539           0.199           3.320           0.296           0.375           0.004           0.240
   540           5.555           0.201           3.365           0.301           0.379           0.008           0.246
   550           5.570           0.203           3.409           0.306           0.383           0.012           0.253
   560           5.584           0.205           3.450           0.310           0.387           0.016           0.259
   570           5.598           0.207           3.489           0.315           0.391           0.020           0.265
   580           5.611           0.209           3.526           0.320           0.395           0.024           0.272
   590           5.623           0.210           3.562           0.325           0.399           0.028           0.278
   600           5.635           0.212           3.596           0.330           0.404           0.032           0.284
   610           5.646           0.213           3.629           0.335           0.408           0.037           0.291
   620           5.657           0.215           3.660           0.340           0.412           0.041           0.297
   630           5.667           0.216           3.690           0.344           0.416           0.045           0.303
   640           5.677           0.217           3.718           0.349           0.421           0.049           0.309
   650           5.686           0.219           3.746           0.354           0.425           0.054           0.315
   660           5.695           0.220           3.772           0.359           0.429           0.058           0.321
   670           5.704           0.221           3.797           0.364           0.434           0.063           0.327
   680           5.712           0.222           3.821           0.369           0.438           0.067           0.333
   690           5.720           0.223           3.844           0.374           0.443           0.071           0.339
   700           5.728           0.224           3.866           0.379           0.447           0.076           0.345
   710           5.735           0.225           3.887           0.384           0.452           0.081           0.351
   720           5.742           0.226           3.908           0.389           0.456           0.085           0.357
   730           5.749           0.227           3.928           0.394           0.461           0.090           0.363
   740           5.755           0.228           3.946           0.399           0.465           0.094           0.369
   750           5.762           0.228           3.965           0.404           0.470           0.099           0.375
   760           5.768           0.229           3.982           0.409           0.475           0.103           0.381
   770           5.773           0.230           3.999           0.414           0.479           0.108           0.387
   780           5.779           0.231           4.015           0.418           0.484           0.113           0.393
   790           5.784           0.231           4.031           0.423           0.489           0.117           0.399
   800           5.790           0.232           4.046           0.428           0.493           0.122           0.404
   810           5.795           0.233           4.061           0.433           0.498           0.127           0.410
   820           5.799           0.233           4.075           0.438           0.503           0.132           0.416
   830           5.804           0.234           4.089           0.443           0.508           0.136           0.422
   840           5.809           0.234           4.102           0.448           0.512           0.141           0.428
   850           5.813           0.235           4.115           0.453           0.517           0.146           0.434
   860           5.817           0.235           4.127           0.458           0.522           0.151           0.439
   870           5.821           0.236           4.139           0.463           0.527           0.156           0.445
   880           5.825           0.236           4.150           0.468           0.531           0.160           0.451
   890           5.829           0.237           4.161           0.474           0.536           0.165           0.457
   900           5.833           0.237           4.172           0.479           0.541           0.170           0.462
   910           5.836           0.238           4.183           0.484           0.546           0.175           0.468
   920           5.840           0.238           4.193           0.489           0.551           0.180           0.474
   930           5.843           0.239           4.203           0.494           0.556           0.185           0.480
   940           5.846           0.239           4.212           0.499           0.561           0.190           0.485
   950           5.849           0.240           4.221           0.504           0.566           0.195           0.491
   960           5.852           0.240           4.230           0.509           0.571           0.200           0.497
   970           5.855           0.240           4.239           0.514           0.575           0.204           0.502
   980           5.858           0.241           4.247           0.519           0.580           0.209           0.508
   990           5.861           0.241           4.256           0.524           0.585           0.214           0.514
  1000           5.864           0.241           4.263           0.529           0.590           0.219           0.519
  1010           5.866           0.242           4.271           0.534           0.595           0.224           0.525
  1020           5.869           0.242           4.279           0.539           0.600           0.229           0.531
  1030           5.871           0.242           4.286           0.544           0.605           0.234           0.536
  1040           5.874           0.243           4.293           0.549           0.610           0.239           0.542
  1050           5.876           0.243           4.300           0.554           0.615           0.244           0.548
  1060           5.879           0.243           4.307           0.559           0.620           0.249           0.553
  1070           5.881           0.243           4.313           0.564           0.625           0.254           0.559
  1080           5.883           0.244           4.319           0.569           0.630           0.259           0.565
  1090           5.885           0.244           4.326           0.575           0.635           0.264           0.570
  1100           5.887           0.244           4.332           0.580           0.640           0.269           0.576
  1110           5.889           0.244           4.338           0.585           0.645           0.274           0.582
  1120           5.891           0.245           4.343           0.590           0.650           0.280           0.587
  1130           5.893           0.245           4.349           0.595           0.655           0.285           0.593
  1140           5.895           0.245           4.354           0.600           0.661           0.290           0.599
  1150           5.896           0.245           4.359           0.605           0.666           0.295           0.604
  1160           5.898           0.246           4.365           0.610           0.671           0.300           0.610
  1170           5.900           0.246           4.370           0.615           0.676           0.305           0.615
  1180           5.902           0.246           4.374           0.620           0.681           0.310           0.621
  1190           5.903           0.246           4.379           0.625           0.686           0.315           0.627
  1200           5.905           0.246           4.384           0.630           0.691           0.320           0.632
  1210           5.906           0.247           4.388           0.635           0.696           0.325           0.638
  1220           5.908           0.247           4.393           0.641           0.701           0.330           0.643
  1230           5.909           0.247           4.397           0.646           0.706           0.336           0.649
  1240           5.911           0.247           4.401           0.651           0.712           0.341           0.655
  1250           5.912           0.247           4.406           0.656           0.717           0.346           0.660
  1260           5.914           0.247           4.410           0.661           0.722           0.351           0.666
  1270           5.915           0.248           4.414           0.666           0.727           0.356           0.671
  1280           5.916           0.248           4.417           0.671           0.732           0.361           0.677
  1290           5.917           0.248           4.421           0.676           0.737           0.366           0.682
  1300           5.919           0.248           4.425           0.681           0.742           0.371           0.688
  1310           5.920           0.248           4.428           0.686           0.748           0.377           0.694
  1320           5.921           0.248           4.432           0.692           0.753           0.382           0.699
  1330           5.922           0.249           4.435           0.697           0.758           0.387           0.705
  1340           5.923           0.249           4.439           0.702           0.763           0.392           0.710
  1350           5.925           0.249           4.442           0.707           0.768           0.397           0.716
  1360           5.926           0.249           4.445           0.712           0.773           0.402           0.721
  1370           5.927           0.249           4.448           0.717           0.779           0.408           0.727
  1380           5.928           0.249           4.451           0.722           0.784           0.413           0.733
  1390           5.929           0.249           4.454           0.727           0.789           0.418           0.738
  1400           5.930           0.249           4.457           0.732           0.794           0.423           0.744
  1410           5.931           0.250           4.460           0.737           0.799           0.428           0.749
  1420           5.932           0.250           4.463           0.743           0.804           0.434           0.755
  1430           5.933           0.250           4.466           0.748           0.810           0.439           0.760
  1440           5.934           0.250           4.469           0.753           0.815           0.444           0.766
  1450           5.935           0.250           4.471           0.758           0.820           0.449           0.771
  1460           5.935           0.250           4.474           0.763           0.825           0.454           0.777
  1470           5.936           0.250           4.476           0.768           0.830           0.460           0.782
  1480           5.937           0.250           4.479           0.773           0.836           0.465           0.788
  1490           5.938           0.250           4.481           0.778           0.841           0.470           0.794
  1500           5.939           0.251           4.484           0.784           0.846           0.475           0.799
  1510           5.940           0.251           4.486           0.789           0.851           0.480           0.805
  1520           5.940           0.251           4.488           0.794           0.857           0.486           0.810
  1530           5.941           0.251           4.491           0.799           0.862           0.491           0.816
  1540           5.942           0.251           4.493           0.804           0.867           0.496           0.821
  1550           5.943           0.251           4.495           0.809           0.872           0.501           0.827
  1560           5.943           0.251           4.497           0.814           0.877           0.507           0.832
  1570           5.944           0.251           4.499           0.819           0.883           0.512           0.838
  1580           5.945           0.251           4.501           0.824           0.888           0.517           0.843
  1590           5.945           0.251           4.503           0.830           0.893           0.522           0.849
  1600           5.946           0.251           4.505           0.835           0.898           0.528           0.854
  1610           5.947           0.252           4.507           0.840           0.904           0.533           0.860
  1620           5.947           0.252           4.509           0.845           0.909           0.538           0.865
  1630           5.948           0.252           4.511           0.850           0.914           0.543           0.871
  1640           5.949           0.252           4.513           0.855           0.919           0.549           0.876
  1650           5.949           0.252           4.515           0.860           0.925           0.554           0.882
  1660           5.950           0.252           4.517           0.865           0.930           0.559           0.887
  1670           5.951           0.252           4.518           0.871           0.935           0.564           0.893
  1680           5.951           0.252           4.520           0.876           0.940           0.570           0.898
  1690           5.952           0.252           4.522           0.881           0.946           0.575           0.904
  1700           5.952           0.252           4.523           0.886           0.951           0.580           0.909
  1710           5.953           0.252           4.525           0.891           0.956           0.585           0.915
  1720           5.953           0.252           4.527           0.896           0.961           0.591           0.920
  1730           5.954           0.252           4.528           0.901           0.967           0.596           0.926
  1740           5.954           0.252           4.530           0.907           0.972           0.601           0.932
  1750           5.955           0.253           4.531           0.912           0.977           0.606           0.937
  1760           5.955           0.253           4.533           0.917           0.983           0.612           0.943
  1770           5.956           0.253           4.534           0.922           0.988           0.617           0.948
  1780           5.956           0.253           4.536           0.927           0.993           0.622           0.954
  1790           5.957           0.253           4.537           0.932           0.998           0.628           0.959
  1800           5.957           0.253           4.539           0.937           1.004           0.633           0.965
  1810           5.958           0.253           4.540           0.942           1.009           0.638           0.970
  1820           5.958           0.253           4.541           0.948           1.014           0.643           0.976
  1830           5.959           0.253           4.543           0.953           1.020           0.649           0.981
  1840           5.959           0.253           4.544           0.958           1.025           0.654           0.987
  1850           5.960           0.253           4.545           0.963           1.030           0.659           0.992
  1860           5.960           0.253           4.546           0.968           1.035           0.665           0.998
  1870           5.960           0.253           4.548           0.973           1.041           0.670           1.003
  1880           5.961           0.253           4.549           0.978           1.046           0.675           1.009
  1890           5.961           0.253           4.550           0.984           1.051           0.680           1.014
  1900           5.962           0.253           4.551           0.989           1.057           0.686           1.019
  1910           5.962           0.253           4.552           0.994           1.062           0.691           1.025
  1920           5.962           0.253           4.554           0.999           1.067           0.696           1.030
  1930           5.963           0.254           4.555           1.004           1.073           0.702           1.036
  1940           5.963           0.254           4.556           1.009           1.078           0.707           1.041
  1950           5.964           0.254           4.557           1.014           1.083           0.712           1.047
  1960           5.964           0.254           4.558           1.020           1.088           0.718           1.052
  1970           5.964           0.254           4.559           1.025           1.094           0.723           1.058
  1980           5.965           0.254           4.560           1.030           1.099           0.728           1.063
  1990           5.965           0.254           4.561           1.035           1.104           0.734           1.069
  2000           5.965           0.254           4.562           1.040           1.110           0.739           1.074
  2010           5.966           0.254           4.563           1.045           1.115           0.744           1.080
  2020           5.966           0.254           4.564           1.050           1.120           0.749           1.085
  2030           5.966           0.254           4.565           1.055           1.126           0.755           1.091
  2040           5.967           0.254           4.566           1.061           1.131           0.760           1.096
  2050           5.967           0.254           4.567           1.066           1.136           0.765           1.102
  2060           5.967           0.254           4.568           1.071           1.142           0.771           1.107
  2070           5.968           0.254           4.569           1.076           1.147           0.776           1.113
  2080           5.968           0.254           4.570           1.081           1.152           0.781           1.118
  2090           5.968           0.254           4.571           1.086           1.157           0.787           1.124
  2100           5.969           0.254           4.572           1.091           1.163           0.792           1.129
  2110           5.969           0.254           4.573           1.097           1.168           0.797           1.135
  2120           5.969           0.254           4.573           1.102           1.173           0.803           1.140
  2130           5.969           0.254           4.574           1.107           1.179           0.808           1.146
  2140           5.970           0.254           4.575           1.112           1.184           0.813           1.151
  2150           5.970           0.254           4.576           1.117           1.189           0.819           1.157
  2160           5.970           0.254           4.577           1.122           1.195           0.824           1.162
  2170           5.971           0.254           4.578           1.127           1.200           0.829           1.168
  2180           5.971           0.254           4.578           1.133           1.205           0.835           1.173
  2190           5.971           0.255           4.579           1.138           1.211           0.840           1.179
  2200           5.971           0.255           4.580           1.143           1.216           0.845           1.184
  2210           5.972           0.255           4.581           1.148           1.221           0.851           1.190
  2220           5.972           0.255           4.581           1.153           1.227           0.856           1.195
  2230           5.972           0.255           4.582           1.158           1.232           0.861           1.200
  2240           5.972           0.255           4.583           1.164           1.237           0.867           1.206
  2250           5.973           0.255           4.584           1.169           1.243           0.872           1.211
  2260           5.973           0.255           4.584           1.174           1.248           0.877           1.217
  2270           5.973           0.255           4.585           1.179           1.253           0.883           1.222
  2280           5.973           0.255           4.586           1.184           1.259           0.888           1.228
  2290           5.974           0.255           4.586           1.189           1.264           0.893           1.233
  2300           5.974           0.255           4.587           1.194           1.269           0.899           1.239
  2310           5.974           0.255           4.588           1.200           1.275           0.904           1.244
  2320           5.974           0.255           4.588           1.205           1.280           0.909           1.250
  2330           5.974           0.255           4.589           1.210           1.285           0.915           1.255
  2340           5.975           0.255           4.590           1.215           1.291           0.920           1.261
  2350           5.975           0.255           4.590           1.220           1.296           0.925           1.266
  2360           5.975           0.255           4.591           1.225           1.301           0.931           1.272
  2370           5.975           0.255           4.591           1.230           1.307           0.936           1.277
  2380           5.976           0.255           4.592           1.236           1.312           0.941           1.283
  2390           5.976           0.255           4.593           1.241           1.318           0.947           1.288
  2400           5.976           0.255           4.593           1.246           1.323           0.952           1.293
  2410           5.976           0.255           4.594           1.251           1.328           0.957           1.299
  2420           5.976           0.255           4.594           1.256           1.334           0.963           1.304
  2430           5.977           0.255           4.595           1.261           1.339           0.968           1.310
  2440           5.977           0.255           4.596           1.266           1.344           0.973           1.315
  2450           5.977           0.255           4.596           1.272           1.350           0.979           1.321
  2460           5.977           0.255           4.597           1.277           1.355           0.984           1.326
  2470           5.977           0.255           4.597           1.282           1.360           0.990           1.332
  2480           5.977           0.255           4.598           1.287           1.366           0.995           1.337
  2490           5.978           0.255           4.598           1.292           1.371           1.000           1.343
  2500           5.978           0.255           4.599           1.297           1.376           1.006           1.348
  2510           5.978           0.255           4.599           1.303           1.382           1.011           1.354
  2520           5.978           0.255           4.600           1.308           1.387           1.016           1.359
  2530           5.978           0.255           4.600           1.313           1.392           1.022           1.365
  2540           5.979           0.255           4.601           1.318           1.398           1.027           1.370
  2550           5.979           0.255           4.601           1.323           1.403           1.032           1.375
  2560           5.979           0.255           4.602           1.328           1.408           1.038           1.381
  2570           5.979           0.255           4.602           1.333           1.414           1.043           1.386
  2580           5.979           0.255           4.603           1.339           1.419           1.048           1.392
  2590           5.979           0.256           4.603           1.344           1.425           1.054           1.397
  2600           5.979           0.256           4.604           1.349           1.430           1.059           1.403
  2610           5.980           0.256           4.604           1.354           1.435           1.064           1.408
  2620           5.980           0.256           4.605           1.359           1.441           1.070           1.414
  2630           5.980           0.256           4.605           1.364           1.446           1.075           1.419
  2640           5.980           0.256           4.606           1.370           1.451           1.081           1.425
  2650           5.980           0.256           4.606           1.375           1.457           1.086           1.430
  2660           5.980           0.256           4.606           1.380           1.462           1.091           1.436
  2670           5.981           0.256           4.607           1.385           1.467           1.097           1.441
  2680           5.981           0.256           4.607           1.390           1.473           1.102           1.447
  2690           5.981           0.256           4.608           1.395           1.478           1.107           1.452
  2700           5.981           0.256           4.608           1.400           1.484           1.113           1.457
  2710           5.981           0.256           4.609           1.406           1.489           1.118           1.463
  2720           5.981           0.256           4.609           1.411           1.494           1.123           1.468
  2730           5.981           0.256           4.609           1.416           1.500           1.129           1.474
  2740           5.982           0.256           4.610           1.421           1.505           1.134           1.479
  2750           5.982           0.256           4.610           1.426           1.510           1.140           1.485
  2760           5.982           0.256           4.611           1.431           1.516           1.145           1.490
  2770           5.982           0.256           4.611           1.437           1.521           1.150           1.496
  2780           5.982           0.256           4.611           1.442           1.526           1.156           1.501
  2790           5.982           0.256           4.612           1.447           1.532           1.161           1.507
  2800           5.982           0.256           4.612           1.452           1.537           1.166           1.512
  2810           5.982           0.256           4.612           1.457           1.543           1.172           1.517
  2820           5.983           0.256           4.613           1.462           1.548           1.177           1.523
  2830           5.983           0.256           4.613           1.467           1.553           1.183           1.528
  2840           5.983           0.256           4.614           1.473           1.559           1.188           1.534
  2850           5.983           0.256           4.614           1.478           1.564           1.193           1.539
  2860           5.983           0.256           4.614           1.483           1.569           1.199           1.545
  2870           5.983           0.256           4.615           1.488           1.575           1.204           1.550
  2880           5.983           0.256           4.615           1.493           1.580           1.209           1.556
  2890           5.983           0.256           4.615           1.498           1.586           1.215           1.561
  2900           5.984           0.256           4.616           1.504           1.591           1.220           1.567
  2910           5.984           0.256           4.616           1.509           1.596           1.225           1.572
  2920           5.984           0.256           4.616           1.514           1.602           1.231           1.578
  2930           5.984           0.256           4.617           1.519           1.607           1.236           1.583
  2940           5.984           0.256           4.617           1.524           1.612           1.242           1.588
  2950           5.984           0.256           4.617           1.529           1.618           1.247           1.594
  2960           5.984           0.256           4.618           1.534           1.623           1.252           1.599
  2970           5.984           0.256           4.618           1.540           1.629           1.258           1.605
  2980           5.984           0.256           4.618           1.545           1.634           1.263           1.610
  2990           5.984           0.256           4.618           1.550           1.639           1.268           1.616
  3000           5.985           0.256           4.619           1.555           1.645           1.274           1.621
  3010           5.985           0.256           4.619           1.560           1.650           1.279           1.627
  3020           5.985           0.256           4.619           1.565           1.655           1.285           1.632
  3030           5.985           0.256           4.620           1.571           1.661           1.290           1.638
  3040           5.985           0.256           4.620           1.576           1.666           1.295           1.643
  3050           5.985           0.256           4.620           1.581           1.672           1.301           1.648
  3060           5.985           0.256           4.621           1.586           1.677           1.306           1.654
  3070           5.985           0.256           4.621           1.591           1.682           1.311           1.659
  3080           5.985           0.256           4.621           1.596           1.688           1.317           1.665
  3090           5.985           0.256           4.621           1.602           1.693           1.322           1.670
  3100           5.986           0.256           4.622           1.607           1.698           1.328           1.676
  3110           5.986           0.256           4.622           1.612           1.704           1.333           1.681
  3120           5.986           0.256           4.622           1.617           1.709           1.338           1.687
  3130           5.986           0.256           4.622           1.622           1.715           1.344           1.692
  3140           5.986           0.256           4.623           1.627           1.720           1.349           1.697
  3150           5.986           0.256           4.623           1.632           1.725           1.355           1.703
  3160           5.986           0.256           4.623           1.638           1.731           1.360           1.708
  3170           5.986           0.256           4.624           1.643           1.736           1.365           1.714
  3180           5.986           0.256           4.624           1.648           1.741           1.371           1.719
  3190           5.986           0.256           4.624           1.653           1.747           1.376           1.725
  3200           5.986           0.256           4.624           1.658           1.752           1.381           1.730
  3210           5.987           0.256           4.625           1.663           1.758           1.387           1.736
  3220           5.987           0.256           4.625           1.669           1.763           1.392           1.741
  3230           5.987           0.256           4.625           1.674           1.768           1.398           1.747
  3240           5.987           0.256           4.625           1.679           1.774           1.403           1.752
  3250           5.987           0.256           4.625           1.684           1.779           1.408           1.757
  3260           5.987           0.256           4.626           1.689           1.785           1.414           1.763
  3270           5.987           0.256           4.626           1.694           1.790           1.419           1.768
  3280           5.987           0.256           4.626           1.700           1.795           1.425           1.774
  3290           5.987           0.256           4.626           1.705           1.801           1.430           1.779
  3300           5.987           0.256           4.627           1.710           1.806           1.435           1.785
  3310           5.987           0.256           4.627           1.715           1.811           1.441           1.790
  3320           5.987           0.256           4.627           1.720           1.817           1.446           1.796
  3330           5.987           0.256           4.627           1.725           1.822           1.451           1.801
  3340           5.988           0.256           4.628           1.731           1.828           1.457           1.807
  3350           5.988           0.257           4.628           1.736           1.833           1.462           1.812
  3360           5.988           0.257           4.628           1.741           1.838           1.468           1.817
  3370           5.988           0.257           4.628           1.746           1.844           1.473           1.823
  3380           5.988           0.257           4.628           1.751           1.849           1.478           1.828
  3390           5.988           0.257           4.629           1.756           1.855           1.484           1.834
  3400           5.988           0.257           4.629           1.761           1.860           1.489           1.839
  3410           5.988           0.257           4.629           1.767           1.865           1.495           1.845
  3420           5.988           0.257           4.629           1.772           1.871           1.500           1.850
  3430           5.988           0.257           4.629           1.777           1.876           1.505           1.856
  3440           5.988           0.257           4.630           1.782           1.881           1.511           1.861
  3450           5.988           0.257           4.630           1.787           1.887           1.516           1.866
  3460           5.988           0.257           4.630           1.792           1.892           1.521           1.872
  3470           5.988           0.257           4.630           1.798           1.898           1.527           1.877
  3480           5.989           0.257           4.630           1.803           1.903           1.532           1.883
  3490           5.989           0.257           4.631           1.808           1.908           1.538           1.888
  3500           5.989           0.257           4.631           1.813           1.914           1.543           1.894
  3510           5.989           0.257           4.631           1.818           1.919           1.548           1.899
  3520           5.989           0.257           4.631           1.823           1.925           1.554           1.905
  3530           5.989           0.257           4.631           1.829           1.930           1.559           1.910
  3540           5.989           0.257           4.632           1.834           1.935           1.565           1.915
  3550           5.989           0.257           4.632           1.839           1.941           1.570           1.921
  3560           5.989           0.257           4.632           1.844           1.946           1.575           1.926
  3570           5.989           0.257           4.632           1.849           1.952           1.581           1.932
  3580           5.989           0.257           4.632           1.854           1.957           1.586           1.937
  3590           5.989           0.257           4.632           1.860           1.962           1.592           1.943
  3600           5.989           0.257           4.633           1.865           1.968           1.597           1.948
  3610           5.989           0.257           4.633           1.870           1.973           1.602           1.954
  3620           5.989           0.257           4.633           1.875           1.979           1.608           1.959
  3630           5.989           0.257           4.633           1.880           1.984           1.613           1.965
  3640           5.990           0.257           4.633           1.885           1.989           1.619           1.970
  3650           5.990           0.257           4.633           1.890           1.995           1.624           1.975
  3660           5.990           0.257           4.634           1.896           2.000           1.629           1.981
  3670           5.990           0.257           4.634           1.901           2.005           1.635           1.986
  3680           5.990           0.257           4.634           1.906           2.011           1.640           1.992
  3690           5.990           0.257           4.634           1.911           2.016           1.645           1.997
  3700           5.990           0.257           4.634           1.916           2.022           1.651           2.003
  3710           5.990           0.257           4.634           1.921           2.027           1.656           2.008
  3720           5.990           0.257           4.635           1.927           2.032           1.662           2.014
  3730           5.990           0.257           4.635           1.932           2.038           1.667           2.019
  3740           5.990           0.257           4.635           1.937           2.043           1.672           2.024
  3750           5.990           0.257           4.635           1.942           2.049           1.678           2.030
  3760           5.990           0.257           4.635           1.947           2.054           1.683           2.035
  3770           5.990           0.257           4.635           1.952           2.059           1.689           2.041
  3780           5.990           0.257           4.636           1.958           2.065           1.694           2.046
  3790           5.990           0.257           4.636           1.963           2.070           1.699           2.052
  3800           5.990           0.257           4.636           1.968           2.076           1.705           2.057
  3810           5.990           0.257           4.636           1.973           2.081           1.710           2.063
  3820           5.990           0.257           4.636           1.978           2.086           1.716           2.068
  3830           5.991           0.257           4.636           1.983           2.092           1.721           2.073
  3840           5.991           0.257           4.636           1.989           2.097           1.726           2.079
  3850           5.991           0.257           4.637           1.994           2.103           1.732           2.084
  3860           5.991           0.257           4.637           1.999           2.108           1.737           2.090
  3870           5.991           0.257           4.637           2.004           2.113           1.743           2.095
  3880           5.991           0.257           4.637           2.009           2.119           1.748           2.101
  3890           5.991           0.257           4.637           2.014           2.124           1.753           2.106
  3900           5.991           0.257           4.637           2.020           2.130           1.759           2.112
  3910           5.991           0.257           4.637           2.025           2.135           1.764           2.117
  3920           5.991           0.257           4.638           2.030           2.140           1.770           2.122
  3930           5.991           0.257           4.638           2.035           2.146           1.775           2.128
  3940           5.991           0.257           4.638           2.040           2.151           1.780           2.133
  3950           5.991           0.257           4.638           2.045           2.157           1.786           2.139
  3960           5.991           0.257           4.638           2.051           2.162           1.791           2.144
  3970           5.991           0.257           4.638           2.056           2.167           1.797           2.150
  3980           5.991           0.257           4.638           2.061           2.173           1.802           2.155
  3990           5.991           0.257           4.639           2.066           2.178           1.807           2.161
  4000           5.991           0.257           4.639           2.071           2.184           1.813           2.166
  4010           5.991           0.257           4.639           2.076           2.189           1.818           2.171
  4020           5.991           0.257           4.639           2.081           2.194           1.824           2.177
  4030           5.991           0.257           4.639           2.087           2.200           1.829           2.182
  4040           5.991           0.257           4.639           2.092           2.205           1.834           2.188
  4050           5.992           0.257           4.639           2.097           2.211           1.840           2.193
  4060           5.992           0.257           4.639           2.102           2.216           1.845           2.199
  4070           5.992           0.257           4.640           2.107           2.221           1.851           2.204
  4080           5.992           0.257           4.640           2.112           2.227           1.856           2.210
  4090           5.992           0.257           4.640           2.118           2.232           1.861           2.215
  4100           5.992           0.257           4.640           2.123           2.238           1.867           2.220
  4110           5.992           0.257           4.640           2.128           2.243           1.872           2.226
  4120           5.992           0.257           4.640           2.133           2.248           1.878           2.231
  4130           5.992           0.257           4.640           2.138           2.254           1.883           2.237
  4140           5.992           0.257           4.640           2.143           2.259           1.888           2.242
  4150           5.992           0.257           4.640           2.149           2.265           1.894           2.248
  4160           5.992           0.257           4.641           2.154           2.270           1.899           2.253
  4170           5.992           0.257           4.641           2.159           2.275           1.905           2.258
  4180           5.992           0.257           4.641           2.164           2.281           1.910           2.264
  4190           5.992           0.257           4.641           2.169           2.286           1.915           2.269
  4200           5.992           0.257           4.641           2.174           2.292           1.921           2.275
  4210           5.992           0.257           4.641           2.180           2.297           1.926           2.280
  4220           5.992           0.257           4.641           2.185           2.302           1.932           2.286
  4230           5.992           0.257           4.641           2.190           2.308           1.937           2.291
  4240           5.992           0.257           4.641           2.195           2.313           1.942           2.297
  4250           5.992           0.257           4.642           2.200           2.319           1.948           2.302
  4260           5.992           0.257           4.642           2.205           2.324           1.953           2.307
  4270           5.992           0.257           4.642           2.211           2.329           1.959           2.313
  4280           5.992           0.257           4.642           2.216           2.335           1.964           2.318
  4290           5.992           0.257           4.642           2.221           2.340           1.969           2.324
  4300           5.992           0.257           4.642           2.226           2.346           1.975           2.329
  4310           5.993           0.257           4.642           2.231           2.351           1.980           2.335
  4320           5.993           0.257           4.642           2.236           2.356           1.986           2.340
  4330           5.993           0.257           4.642           2.242           2.362           1.991           2.346
  4340           5.993           0.257           4.642           2.247           2.367           1.996           2.351
  4350           5.993           0.257           4.643           2.252           2.373           2.002           2.356
  4360           5.993           0.257           4.643           2.257           2.378           2.007           2.362
  4370           5.993           0.257           4.643           2.262           2.383           2.013           2.367
  4380           5.993           0.257           4.643           2.267           2.389           2.018           2.373
  4390           5.993           0.257           4.643           2.273           2.394           2.023           2.378
  4400           5.993           0.257           4.643           2.278           2.400           2.029           2.384
  4410           5.993           0.257           4.643           2.283           2.405           2.034           2.389
  4420           5.993           0.257           4.643           2.288           2.410           2.040           2.395
  4430           5.993           0.257           4.643           2.293           2.416           2.045           2.400
  4440           5.993           0.257           4.643           2.298           2.421           2.050           2.405
  4450           5.993           0.257           4.644           2.304           2.427           2.056           2.411
  4460           5.993           0.257           4.644           2.309           2.432           2.061           2.416
  4470           5.993           0.257           4.644           2.314           2.437           2.067           2.422
  4480           5.993           0.257           4.644           2.319           2.443           2.072           2.427
  4490           5.993           0.257           4.644           2.324           2.448           2.078           2.433
  4500           5.993           0.257           4.644           2.329           2.454           2.083           2.438
  4510           5.993           0.257           4.644           2.335           2.459           2.088           2.443
  4520           5.993           0.257           4.644           2.340           2.464           2.094           2.449
  4530           5.993           0.257           4.644           2.345           2.470           2.099           2.454
  4540           5.993           0.257           4.644           2.350           2.475           2.105           2.460
  4550           5.993           0.257           4.644           2.355           2.481           2.110           2.465
  4560           5.993           0.257           4.645           2.360           2.486           2.115           2.471
  4570           5.993           0.257           4.645           2.365           2.492           2.121           2.476
  4580           5.993           0.257           4.645           2.371           2.497           2.126           2.482
  4590           5.993           0.257           4.645           2.376           2.502           2.132           2.487
  4600           5.993           0.257           4.645           2.381           2.508           2.137           2.492
  4610           5.993           0.257           4.645           2.386           2.513           2.142           2.498
  4620           5.993           0.257           4.645           2.391           2.519           2.148           2.503
  4630           5.994           0.257           4.645           2.396           2.524           2.153           2.509
  4640           5.994           0.257           4.645           2.402           2.529           2.159           2.514
  4650           5.994           0.257           4.645           2.407           2.535           2.164           2.520
  4660           5.994           0.257           4.645           2.412           2.540           2.169           2.525
  4670           5.994           0.257           4.645           2.417           2.546           2.175           2.531
  4680           5.994           0.257           4.646           2.422           2.551           2.180           2.536
  4690           5.994           0.257           4.646           2.427           2.556           2.186           2.541
  4700           5.994           0.257           4.646           2.433           2.562           2.191           2.547
  4710           5.994           0.257           4.646           2.438           2.567           2.196           2.552
  4720           5.994           0.257           4.646           2.443           2.573           2.202           2.558
  4730           5.994           0.257           4.646           2.448           2.578           2.207           2.563
  4740           5.994           0.257           4.646           2.453           2.583           2.213           2.569
  4750           5.994           0.257           4.646           2.458           2.589           2.218           2.574
  4760           5.994           0.257           4.646           2.464           2.594           2.224           2.579
  4770           5.994           0.257           4.646           2.469           2.600           2.229           2.585
  4780           5.994           0.257           4.646           2.474           2.605           2.234           2.590
  4790           5.994           0.257           4.646           2.479           2.610           2.240           2.596
  4800           5.994           0.257           4.646           2.484           2.616           2.245           2.601
  4810           5.994           0.257           4.647           2.489           2.621           2.251           2.607
  4820           5.994           0.257           4.647           2.495           2.627           2.256           2.612
  4830           5.994           0.257           4.647           2.500           2.632           2.261           2.618
  4840           5.994           0.257           4.647           2.505           2.638           2.267           2.623
  4850           5.994           0.257           4.647           2.510           2.643           2.272           2.628
  4860           5.994           0.257           4.647           2.515           2.648           2.278           2.634
  4870           5.994           0.257           4.647           2.520           2.654           2.283           2.639
  4880           5.994           0.257           4.647           2.526           2.659           2.288           2.645
  4890           5.994           0.257           4.647           2.531           2.665           2.294           2.650
  4900           5.994           0.257           4.647           2.536           2.670           2.299           2.656
  4910           5.994           0.257           4.647           2.541           2.675           2.305           2.661
  4920           5.994           0.257           4.647           2.546           2.681           2.310           2.666
  4930           5.994           0.257           4.647           2.551           2.686           2.315           2.672
  4940           5.994           0.257           4.647           2.557           2.692           2.321           2.677
  4950           5.994           0.257           4.648           2.562           2.697           2.326           2.683
  4960           5.994           0.257           4.648           2.567           2.702           2.332           2.688
  4970           5.994           0.257           4.648           2.572           2.708           2.337           2.694
  4980           5.994           0.257           4.648           2.577           2.713           2.343           2.699
  4990           5.994           0.257           4.648           2.582           2.719           2.348           2.705
  5000           5.994           0.257           4.648           2.588           2.724           2.353           2.710
  5010           5.994           0.257           4.648           2.593           2.729           2.359           2.715
  5020           5.994           0.257           4.648           2.598           2.735           2.364           2.721
  5030           5.995           0.257           4.648           2.603           2.740           2.370           2.726
  5040           5.995           0.257           4.648           2.608           2.746           2.375           2.732
  5050           5.995           0.257           4.648           2.613           2.751           2.380           2.737
  5060           5.995           0.257           4.648           2.619           2.757           2.386           2.743
  5070           5.995           0.257           4.648           2.624           2.762           2.391           2.748
  5080           5.995           0.257           4.648           2.629           2.767           2.397           2.754
  5090           5.995           0.257           4.648           2.634           2.773           2.402           2.759
  5100           5.995           0.257           4.648           2.639           2.778           2.407           2.764
  5110           5.995           0.257           4.649           2.644           2.784           2.413           2.770
  5120           5.995           0.257           4.649           2.650           2.789           2.418           2.775
  5130           5.995           0.257           4.649           2.655           2.794           2.424           2.781
  5140           5.995           0.257           4.649           2.660           2.800           2.429           2.786
  5150           5.995           0.257           4.649           2.665           2.805           2.434           2.792
  5160           5.995           0.257           4.649           2.670           2.811           2.440           2.797
  5170           5.995           0.257           4.649           2.675           2.816           2.445           2.802
  5180           5.995           0.257           4.649           2.681           2.821           2.451           2.808
  5190           5.995           0.257           4.649           2.686           2.827           2.456           2.813
  5200           5.995           0.257           4.649           2.691           2.832           2.462           2.819
  5210           5.995           0.257           4.649           2.696           2.838           2.467           2.824
  5220           5.995           0.257           4.649           2.701           2.843           2.472           2.830
  5230           5.995           0.257           4.649           2.706           2.849           2.478           2.835
  5240           5.995           0.257           4.649           2.712           2.854           2.483           2.841
  5250           5.995           0.257           4.649           2.717           2.859           2.489           2.846
  5260           5.995           0.257           4.649           2.722           2.865           2.494           2.851
  5270           5.995           0.257           4.649           2.727           2.870           2.499           2.857
  5280           5.995           0.257           4.650           2.732           2.876           2.505           2.862
  5290           5.995           0.257           4.650           2.737           2.881           2.510           2.868
  5300           5.995           0.257           4.650           2.743           2.886           2.516           2.873
  5310           5.995           0.257           4.650           2.748           2.892           2.521           2.879
  5320           5.995           0.257           4.650           2.753           2.897           2.526           2.884
  5330           5.995           0.257           4.650           2.758           2.903           2.532           2.889
  5340           5.995           0.257           4.650           2.763           2.908           2.537           2.895
  5350           5.995           0.257           4.650           2.768           2.913           2.543           2.900
  5360           5.995           0.257           4.650           2.774           2.919           2.548           2.906
  5370           5.995           0.257           4.650           2.779           2.924           2.554           2.911
  5380           5.995           0.257           4.650           2.784           2.930           2.559           2.917
  5390           5.995           0.257           4.650           2.789           2.935           2.564           2.922
  5400           5.995           0.257           4.650           2.794           2.941           2.570           2.927
  5410           5.995           0.257           4.650           2.799           2.946           2.575           2.933
  5420           5.995           0.257           4.650           2.805           2.951           2.581           2.938
  5430           5.995           0.257           4.650           2.810           2.957           2.586           2.944
  5440           5.995           0.257           4.650           2.815           2.962           2.591           2.949
  5450           5.995           0.257           4.650           2.820           2.968           2.597           2.955
  5460           5.995           0.257           4.650           2.825           2.973           2.602           2.960
  5470           5.995           0.257           4.651           2.830           2.978           2.608           2.966
  5480           5.995           0.257           4.651           2.836           2.984           2.613           2.971
  5490           5.995           0.257           4.651           2.841           2.989           2.618           2.976
  5500           5.995           0.257           4.651           2.846           2.995           2.624           2.982
  5510           5.995           0.257           4.651           2.851           3.000           2.629           2.987
  5520           5.995           0.257           4.651           2.856           3.005           2.635           2.993
  5530           5.995           0.257           4.651           2.861           3.011           2.640           2.998
  5540           5.995           0.257           4.651           2.867           3.016           2.646           3.004
  5550           5.995           0.257           4.651           2.872           3.022           2.651           3.009
  5560           5.996           0.257           4.651           2.877           3.027           2.656           3.014
  5570           5.996           0.257           4.651           2.882           3.033           2.662           3.020
  5580           5.996           0.257           4.651           2.887           3.038           2.667           3.025
  5590           5.996           0.257           4.651           2.892           3.043           2.673           3.031
  5600           5.996           0.257           4.651           2.898           3.049           2.678           3.036
  5610           5.996           0.257           4.651           2.903           3.054           2.683           3.042
  5620           5.996           0.257           4.651           2.908           3.060           2.689           3.047
  5630           5.996           0.257           4.651           2.913           3.065           2.694           3.053
  5640           5.996           0.257           4.651           2.918           3.070           2.700           3.058
  5650           5.996           0.257           4.651           2.923           3.076           2.705           3.063
  5660           5.996           0.257           4.651           2.929           3.081           2.711           3.069
  5670           5.996           0.257           4.651           2.934           3.087           2.716           3.074
  5680           5.996           0.257           4.652           2.939           3.092           2.721           3.080
  5690           5.996           0.257           4.652           2.944           3.098           2.727           3.085
  5700           5.996           0.257           4.652           2.949           3.103           2.732           3.091
  5710           5.996           0.257           4.652           2.954           3.108           2.738           3.096
  5720           5.996           0.257           4.652           2.960           3.114           2.743           3.101
  5730           5.996           0.257           4.652           2.965           3.119           2.748           3.107
  5740           5.996           0.257           4.652           2.970           3.125           2.754           3.112
  5750           5.996           0.257           4.652           2.975           3.130           2.759           3.118
  5760           5.996           0.257           4.652           2.980           3.135           2.765           3.123
  5770           5.996           0.257           4.652           2.985           3.141           2.770           3.129
  5780           5.996           0.257           4.652           2.991           3.146           2.776           3.134
  5790           5.996           0.257           4.652           2.996           3.152           2.781           3.140
  5800           5.996           0.257           4.652           3.001           3.157           2.786           3.145
  5810           5.996           0.257           4.652           3.006           3.163           2.792           3.150
  5820           5.996           0.258           4.652           3.011           3.168           2.797           3.156
  5830           5.996           0.258           4.652           3.016           3.173           2.803           3.161
  5840           5.996           0.258           4.652           3.022           3.179           2.808           3.167
  5850           5.996           0.258           4.652           3.027           3.184           2.813           3.172
  5860           5.996           0.258           4.652           3.032           3.190           2.819           3.178
  5870           5.996           0.258           4.652           3.037           3.195           2.824           3.183
  5880           5.996           0.258           4.652           3.042           3.200           2.830           3.188
  5890           5.996           0.258           4.652           3.047           3.206           2.835           3.194
  5900           5.996           0.258           4.652           3.053           3.211           2.840           3.199
  5910           5.996           0.258           4.653           3.058           3.217           2.846           3.205
  5920           5.996           0.258           4.653           3.063           3.222           2.851           3.210
  5930           5.996           0.258           4.653           3.068           3.227           2.857           3.216
  5940           5.996           0.258           4.653           3.073           3.233           2.862           3.221
  5950           5.996           0.258           4.653           3.078           3.238           2.868           3.226
  5960           5.996           0.258           4.653           3.084           3.244           2.873           3.232
  5970           5.996           0.258           4.653           3.089           3.249           2.878           3.237
  5980           5.996           0.258           4.653           3.094           3.255           2.884           3.243
  5990           5.996           0.258           4.653           3.099           3.260           2.889           3.248
  6000           5.996           0.258           4.653           3.104           3.265           2.895           3.254
  6010           5.996           0.258           4.653           3.109           3.271           2.900           3.259
  6020           5.996           0.258           4.653           3.115           3.276           2.905           3.265
  6030           5.996           0.258           4.653           3.120           3.282           2.911           3.270
  6040           5.996           0.258           4.653           3.125           3.287           2.916           3.275
  6050           5.996           0.258           4.653           3.130           3.292           2.922           3.281
  6060           5.996           0.258           4.653           3.135           3.298           2.927           3.286
  6070           5.996           0.258           4.653           3.140           3.303           2.933           3.292
  6080           5.996           0.258           4.653           3.146           3.309           2.938           3.297
  6090           5.996           0.258           4.653           3.151           3.314           2.943           3.303
  6100           5.996           0.258           4.653           3.156           3.320           2.949           3.308
  6110           5.996           0.258           4.653           3.161           3.325           2.954           3.313
  6120           5.996           0.258           4.653           3.166           3.330           2.960           3.319
  6130           5.996           0.258           4.653           3.171           3.336           2.965           3.324
  6140           5.996           0.258           4.653           3.177           3.341           2.970           3.330
  6150           5.996           0.258           4.653           3.182           3.347           2.976           3.335
  6160           5.996           0.258           4.653           3.187           3.352           2.981           3.341
  6170           5.996           0.258           4.653           3.192           3.357           2.987           3.346
  6180           5.996           0.258           4.654           3.197           3.363           2.992           3.351
  6190           5.996           0.258           4.654           3.202           3.368           2.998           3.357
  6200           5.996           0.258           4.654           3.208           3.374           3.003           3.362
  6210           5.996           0.258           4.654           3.213           3.379           3.008           3.368
  6220           5.996           0.258           4.654           3.218           3.385           3.014           3.373
  6230           5.996           0.258           4.654           3.223           3.390           3.019           3.379
  6240           5.996           0.258           4.654           3.228           3.395           3.025           3.384
  6250           5.996           0.258           4.654           3.233           3.401           3.030           3.390
  6260           5.996           0.258           4.654           3.239           3.406           3.035           3.395
  6270           5.996           0.258           4.654           3.244           3.412           3.041           3.400
  6280           5.996           0.258           4.654           3.249           3.417           3.046           3.406
  6290           5.996           0.258           4.654           3.254           3.422           3.052           3.411
  6300           5.996           0.258           4.654           3.259           3.428           3.057           3.417
  6310           5.997           0.258           4.654           3.264           3.433           3.063           3.422
  6320           5.997           0.258           4.654           3.270           3.439           3.068           3.428
  6330           5.997           0.258           4.654           3.275           3.444           3.073           3.433
  6340           5.997           0.258           4.654           3.280           3.450           3.079           3.438
  6350           5.997           0.258           4.654           3.285           3.455           3.084           3.444
  6360           5.997           0.258           4.654           3.290           3.460           3.090           3.449
  6370           5.997           0.258           4.654           3.295           3.466           3.095           3.455
  6380           5.997           0.258           4.654           3.301           3.471           3.100           3.460
  6390           5.997           0.258           4.654           3.306           3.477           3.106           3.466
  6400           5.997           0.258           4.654           3.311           3.482           3.111           3.471
  6410           5.997           0.258           4.654           3.316           3.487           3.117           3.476
  6420           5.997           0.258           4.654           3.321           3.493           3.122           3.482
  6430           5.997           0.258           4.654           3.326           3.498           3.128           3.487
  6440           5.997           0.258           4.654           3.332           3.504           3.133           3.493
  6450           5.997           0.258           4.654           3.337           3.509           3.138           3.498
  6460           5.997           0.258           4.654           3.342           3.515           3.144           3.504
  6470           5.997           0.258           4.654           3.347           3.520           3.149           3.509
  6480           5.997           0.258           4.654           3.352           3.525           3.155           3.515
  6490           5.997           0.258           4.655           3.357           3.531           3.160           3.520
  6500           5.997           0.258           4.655           3.363           3.536           3.165           3.525
  6510           5.997           0.258           4.655           3.368           3.542           3.171           3.531
  6520           5.997           0.258           4.655           3.373           3.547           3.176           3.536
  6530           5.997           0.258           4.655           3.378           3.552           3.182           3.542
  6540           5.997           0.258           4.655           3.383           3.558           3.187           3.547
  6550           5.997           0.258           4.655           3.388           3.563           3.193           3.553
  6560           5.997           0.258           4.655           3.394           3.569           3.198           3.558
  6570           5.997           0.258           4.655           3.399           3.574           3.203           3.563
  6580           5.997           0.258           4.655           3.404           3.580           3.209           3.569
  6590           5.997           0.258           4.655           3.409           3.585           3.214           3.574
  6600           5.997           0.258           4.655           3.414           3.590           3.220           3.580
  6610           5.997           0.258           4.655           3.419           3.596           3.225           3.585
  6620           5.997           0.258           4.655           3.425           3.601           3.230           3.591
  6630           5.997           0.258           4.655           3.430           3.607           3.236           3.596
  6640           5.997           0.258           4.655           3.435           3.612           3.241           3.601
  6650           5.997           0.258           4.655           3.440           3.618           3.247           3.607
  6660           5.997           0.258           4.655           3.445           3.623           3.252           3.612
  6670           5.997           0.258           4.655           3.450           3.628           3.258           3.618
  6680           5.997           0.258           4.655           3.456           3.634           3.263           3.623
  6690           5.997           0.258           4.655           3.461           3.639           3.268           3.629
  6700           5.997           0.258           4.655           3.466           3.645           3.274           3.634
  6710           5.997           0.258           4.655           3.471           3.650           3.279           3.640
  6720           5.997           0.258           4.655           3.476           3.655           3.285           3.645
  6730           5.997           0.258           4.655           3.481           3.661           3.290           3.650
  6740           5.997           0.258           4.655           3.487           3.666           3.296           3.656
  6750           5.997           0.258           4.655           3.492           3.672           3.301           3.661
  6760           5.997           0.258           4.655           3.497           3.677           3.306           3.667
  6770           5.997           0.258           4.655           3.502           3.683           3.312           3.672
  6780           5.997           0.258           4.655           3.507           3.688           3.317           3.678
  6790           5.997           0.258           4.655           3.512           3.693           3.323           3.683
  6800           5.997           0.258           4.655           3.518           3.699           3.328           3.688
  6810           5.997           0.258           4.655           3.523           3.704           3.333           3.694
  6820           5.997           0.258           4.655           3.528           3.710           3.339           3.699
  6830           5.997           0.258           4.655           3.533           3.715           3.344           3.705
  6840           5.997           0.258           4.655           3.538           3.720           3.350           3.710
  6850           5.997           0.258           4.656           3.543           3.726           3.355           3.716
  6860           5.997           0.258           4.656           3.549           3.731           3.361           3.721
  6870           5.997           0.258           4.656           3.554           3.737           3.366           3.726
  6880           5.997           0.258           4.656           3.559           3.742           3.371           3.732
  6890           5.997           0.258           4.656           3.564           3.748           3.377           3.737
  6900           5.997           0.258           4.656           3.569           3.753           3.382           3.743
  6910           5.997           0.258           4.656           3.574           3.758           3.388           3.748
  6920           5.997           0.258           4.656           3.580           3.764           3.393           3.754
  6930           5.997           0.258           4.656           3.585           3.769           3.398           3.759
  6940           5.997           0.258           4.656           3.590           3.775           3.404           3.765
  6950           5.997           0.258           4.656           3.595           3.780           3.409           3.770
  6960           5.997           0.258           4.656           3.600           3.785           3.415           3.775
  6970           5.997           0.258           4.656           3.605           3.791           3.420           3.781
  6980           5.997           0.258           4.656           3.611           3.796           3.426           3.786
  6990           5.997           0.258           4.656           3.616           3.802           3.431           3.792
  7000           5.997           0.258           4.656           3.621           3.807           3.436           3.797
  7010           5.997           0.258           4.656           3.626           3.813           3.442           3.803
  7020           5.997           0.258           4.656           3.631           3.818           3.447           3.808
  7030           5.997           0.258           4.656           3.636           3.823           3.453           3.813
  7040           5.997           0.258           4.656           3.642           3.829           3.458           3.819
  7050           5.997           0.258           4.656           3.647           3.834           3.464           3.824
  7060           5.997           0.258           4.656           3.652           3.840           3.469           3.830
  7070           5.997           0.258           4.656           3.657           3.845           3.474           3.835
  7080           5.997           0.258           4.656           3.662           3.851           3.480           3.841
  7090           5.997           0.258           4.656           3.668           3.856           3.485           3.846
  7100           5.997           0.258           4.656           3.673           3.861           3.491           3.851
  7110           5.997           0.258           4.656           3.678           3.867           3.496           3.857
  7120           5.997           0.258           4.656           3.683           3.872           3.501           3.862
  7130           5.997           0.258           4.656           3.688           3.878           3.507           3.868
  7140           5.997           0.258           4.656           3.693           3.883           3.512           3.873
  7150           5.997           0.258           4.656           3.699           3.888           3.518           3.879
  7160           5.997           0.258           4.656           3.704           3.894           3.523           3.884
  7170           5.997           0.258           4.656           3.709           3.899           3.529           3.889
  7180           5.997           0.258           4.656           3.714           3.905           3.534           3.895
  7190           5.997           0.258           4.656           3.719           3.910           3.539           3.900
  7200           5.997           0.258           4.656           3.724           3.916           3.545           3.906
  7210           5.997           0.258           4.656           3.730           3.921           3.550           3.911
  7220           5.997           0.258           4.656           3.735           3.926           3.556           3.917
  7230           5.997           0.258           4.656           3.740           3.932           3.561           3.922
  7240           5.997           0.258           4.656           3.745           3.937           3.566           3.928
  7250           5.997           0.258           4.656           3.750           3.943           3.572           3.933
  7260           5.997           0.258           4.656           3.755           3.948           3.577           3.938
  7270           5.997           0.258           4.656           3.761           3.953           3.583           3.944
  7280           5.997           0.258           4.657           3.766           3.959           3.588           3.949
  7290           5.997           0.258           4.657           3.771           3.964           3.594           3.955
  7300           5.997           0.258           4.657           3.776           3.970           3.599           3.960
  7310           5.997           0.258           4.657           3.781           3.975           3.604           3.966
  7320           5.997           0.258           4.657           3.786           3.981           3.610           3.971
  7330           5.997           0.258           4.657           3.792           3.986           3.615           3.976
  7340           5.997           0.258           4.657           3.797           3.991           3.621           3.982
  7350           5.997           0.258           4.657           3.802           3.997           3.626           3.987
  7360           5.997           0.258           4.657           3.807           4.002           3.632           3.993
  7370           5.997           0.258           4.657           3.812           4.008           3.637           3.998
  7380           5.997           0.258           4.657           3.817           4.013           3.642           4.004
  7390           5.997           0.258           4.657           3.823           4.019           3.648           4.009
  7400           5.997           0.258           4.657           3.828           4.024           3.653           4.014
  7410           5.997           0.258           4.657           3.833           4.029           3.659           4.020
  7420           5.997           0.258           4.657           3.838           4.035           3.664           4.025
  7430           5.997           0.258           4.657           3.843           4.040           3.669           4.031
  7440           5.997           0.258           4.657           3.848           4.046           3.675           4.036
  7450           5.997           0.258           4.657           3.854           4.051           3.680           4.042
  7460           5.998           0.258           4.657           3.859           4.056           3.686           4.047
  7470           5.998           0.258           4.657           3.864           4.062           3.691           4.052
  7480           5.998           0.258           4.657           3.869           4.067           3.697           4.058
  7490           5.998           0.258           4.657           3.874           4.073           3.702           4.063
  7500           5.998           0.258           4.657           3.879           4.078           3.707           4.069
  7510           5.998           0.258           4.657           3.885           4.084           3.713           4.074
  7520           5.998           0.258           4.657           3.890           4.089           3.718           4.080
  7530           5.998           0.258           4.657           3.895           4.094           3.724           4.085
  7540           5.998           0.258           4.657           3.900           4.100           3.729           4.091
  7550           5.998           0.258           4.657           3.905           4.105           3.735           4.096
  7560           5.998           0.258           4.657           3.910           4.111           3.740           4.101
  7570           5.998           0.258           4.657           3.916           4.116           3.745           4.107
  7580           5.998           0.258           4.657           3.921           4.122           3.751           4.112
  7590           5.998           0.258           4.657           3.926           4.127           3.756           4.118
  7600           5.998           0.258           4.657           3.931           4.132           3.762           4.123
  7610           5.998           0.258           4.657           3.936           4.138           3.767           4.129
  7620           5.998           0.258           4.657           3.941           4.143           3.772           4.134
  7630           5.998           0.258           4.657           3.947           4.149           3.778           4.139
  7640           5.998           0.258           4.657           3.952           4.154           3.783           4.145
  7650           5.998           0.258           4.657           3.957           4.159           3.789           4.150
  7660           5.998           0.258           4.657           3.962           4.165           3.794           4.156
  7670           5.998           0.258           4.657           3.967           4.170           3.800           4.161
  7680           5.998           0.258           4.657           3.972           4.176           3.805           4.167
  7690           5.998           0.258           4.657           3.978           4.181           3.810           4.172
  7700           5.998           0.258           4.657           3.983           4.187           3.816           4.177
  7710           5.998           0.258           4.657           3.988           4.192           3.821           4.183
  7720           5.998           0.258           4.657           3.993           4.197           3.827           4.188
  7730           5.998           0.258           4.657           3.998           4.203           3.832           4.194
  7740           5.998           0.258           4.657           4.003           4.208           3.838           4.199
  7750           5.998           0.258           4.657           4.009           4.214           3.843           4.205
  7760           5.998           0.258           4.657           4.014           4.219           3.848           4.210
  7770           5.998           0.258           4.657           4.019           4.225           3.854           4.215
  7780           5.998           0.258           4.657           4.024           4.230           3.859           4.221
  7790           5.998           0.258           4.657           4.029           4.235           3.865           4.226
  7800           5.998           0.258           4.658           4.034           4.241           3.870           4.232
  7810           5.998           0.258           4.658           4.040           4.246           3.875           4.237
  7820           5.998           0.258           4.658           4.045           4.252           3.881           4.243
  7830           5.998           0.258           4.658           4.050           4.257           3.886           4.248
  7840           5.998           0.258           4.658           4.055           4.262           3.892           4.253
  7850           5.998           0.258           4.658           4.060           4.268           3.897           4.259
  7860           5.998           0.258           4.658           4.065           4.273           3.903           4.264
  7870           5.998           0.258           4.658           4.071           4.279           3.908           4.270
  7880           5.998           0.258           4.658           4.076           4.284           3.913           4.275
  7890           5.998           0.258           4.658           4.081           4.290           3.919           4.281
  7900           5.998           0.258           4.658           4.086           4.295           3.924           4.286
  7910           5.998           0.258           4.658           4.091           4.300           3.930           4.292
  7920           5.998           0.258           4.658           4.096           4.306           3.935           4.297
  7930           5.998           0.258           4.658           4.102           4.311           3.941           4.302
  7940           5.998           0.258           4.658           4.107           4.317           3.946           4.308
  7950           5.998           0.258           4.658           4.112           4.322           3.951           4.313
  7960           5.998           0.258           4.658           4.117           4.328           3.957           4.319
  7970           5.998           0.258           4.658           4.122           4.333           3.962           4.324
  7980           5.998           0.258           4.658           4.127           4.338           3.968           4.330
  7990           5.998           0.258           4.658           4.133           4.344           3.973           4.335
  8000           5.998           0.258           4.658           4.138           4.349           3.978           4.340
  8010           5.998           0.258           4.658           4.143           4.355           3.984           4.346
  8020           5.998           0.258           4.658           4.148           4.360           3.989           4.351
  8030           5.998           0.258           4.658           4.153           4.365           3.995           4.357
  8040           5.998           0.258           4.658           4.158           4.371           4.000           4.362
  8050           5.998           0.258           4.658           4.164           4.376           4.006           4.368
  8060           5.998           0.258           4.658           4.169           4.382           4.011           4.373
  8070           5.998           0.258           4.658           4.174           4.387           4.016           4.378
  8080           5.998           0.258           4.658           4.179           4.393           4.022           4.384
  8090           5.998           0.258           4.658           4.184           4.398           4.027           4.389
  8100           5.998           0.258           4.658           4.190           4.403           4.033           4.395
  8110           5.998           0.258           4.658           4.195           4.409           4.038           4.400
  8120           5.998           0.258           4.658           4.200           4.414           4.044           4.406
  8130           5.998           0.258           4.658           4.205           4.420           4.049           4.411
  8140           5.998           0.258           4.658           4.210           4.425           4.054           4.416
  8150           5.998           0.258           4.658           4.215           4.431           4.060           4.422
  8160           5.998           0.258           4.658           4.221           4.436           4.065           4.427
  8170           5.998           0.258           4.658           4.226           4.441           4.071           4.433
  8180           5.998           0.258           4.658           4.231           4.447           4.076           4.438
  8190           5.998           0.258           4.658           4.236           4.452           4.081           4.444
  8200           5.998           0.258           4.658           4.241           4.458           4.087           4.449
  8210           5.998           0.258           4.658           4.246           4.463           4.092           4.455
  8220           5.998           0.258           4.658           4.252           4.468           4.098           4.460
  8230           5.998           0.258           4.658           4.257           4.474           4.103           4.465
  8240           5.998           0.258           4.658           4.262           4.479           4.109           4.471
  8250           5.998           0.258           4.658           4.267           4.485           4.114           4.476
  8260           5.998           0.258           4.658           4.272           4.490           4.119           4.482
  8270           5.998           0.258           4.658           4.277           4.496           4.125           4.487
  8280           5.998           0.258           4.658           4.283           4.501           4.130           4.493
  8290           5.998           0.258           4.658           4.288           4.506           4.136           4.498
  8300           5.998           0.258           4.658           4.293           4.512           4.141           4.503
  8310           5.998           0.258           4.658           4.298           4.517           4.147           4.509
  8320           5.998           0.258           4.658           4.303           4.523           4.152           4.514
  8330           5.998           0.258           4.658           4.308           4.528           4.157           4.520
  8340           5.998           0.258           4.658           4.314           4.534           4.163           4.525
  8350           5.998           0.258           4.658           4.319           4.539           4.168           4.531
  8360           5.998           0.258           4.658           4.324           4.544           4.174           4.536
  8370           5.998           0.258           4.658           4.329           4.550           4.179           4.541
  8380           5.998           0.258           4.658           4.334           4.555           4.184           4.547
  8390           5.998           0.258           4.658           4.339           4.561           4.190           4.552
  8400           5.998           0.258           4.658           4.345           4.566           4.195           4.558
  8410           5.998           0.258           4.658           4.350           4.572           4.201           4.563
  8420           5.998           0.258           4.658           4.355           4.577           4.206           4.569
  8430           5.998           0.258           4.658           4.360           4.582           4.212           4.574
  8440           5.998           0.258           4.658           4.365           4.588           4.217           4.579
  8450           5.998           0.258           4.659           4.370           4.593           4.222           4.585
  8460           5.998           0.258           4.659           4.376           4.599           4.228           4.590
  8470           5.998           0.258           4.659           4.381           4.604           4.233           4.596
  8480           5.998           0.258           4.659           4.386           4.609           4.239           4.601
  8490           5.998           0.258           4.659           4.391           4.615           4.244           4.607
  8500           5.998           0.258           4.659           4.396           4.620           4.250           4.612
  8510           5.998           0.258           4.659           4.401           4.626           4.255           4.617
  8520           5.998           0.258           4.659           4.407           4.631           4.260           4.623
  8530           5.998           0.258           4.659           4.412           4.637           4.266           4.628
  8540           5.998           0.258           4.659           4.417           4.642           4.271           4.634
  8550           5.998           0.258           4.659           4.422           4.647           4.277           4.639
  8560           5.998           0.258           4.659           4.427           4.653           4.282           4.645
  8570           5.998           0.258           4.659           4.432           4.658           4.288           4.650
  8580           5.998           0.258           4.659           4.438           4.664           4.293           4.655
  8590           5.998           0.258           4.659           4.443           4.669           4.298           4.661
  8600           5.998           0.258           4.659           4.448           4.675           4.304           4.666
  8610           5.998           0.258           4.659           4.453           4.680           4.309           4.672
  8620           5.998           0.258           4.659           4.458           4.685           4.315           4.677
  8630           5.998           0.258           4.659           4.463           4.691           4.320           4.683
  8640           5.998           0.258           4.659           4.469           4.696           4.325           4.688
  8650           5.998           0.258           4.659           4.474           4.702           4.331           4.694
  8660           5.998           0.258           4.659           4.479           4.707           4.336           4.699
  8670           5.998           0.258           4.659           4.484           4.713           4.342           4.704
  8680           5.998           0.258           4.659           4.489           4.718           4.347           4.710
  8690           5.998           0.258           4.659           4.494           4.723           4.353           4.715
  8700           5.998           0.258           4.659           4.500           4.729           4.358           4.721
  8710           5.998           0.258           4.659           4.505           4.734           4.363           4.726
  8720           5.998           0.258           4.659           4.510           4.740           4.369           4.732
  8730           5.998           0.258           4.659           4.515           4.745           4.374           4.737
  8740           5.998           0.258           4.659           4.520           4.750           4.380           4.742
  8750           5.998           0.258           4.659           4.525           4.756           4.385           4.748
  8760           5.998           0.258           4.659           4.531           4.761           4.391           4.753
  8770           5.998           0.258           4.659           4.536           4.767           4.396           4.759
  8780           5.998           0.258           4.659           4.541           4.772           4.401           4.764
  8790           5.998           0.258           4.659           4.546           4.778           4.407           4.770
  8800           5.998           0.258           4.659           4.551           4.783           4.412           4.775
  8810           5.998           0.258           4.659           4.556           4.788           4.418           4.780
  8820           5.998           0.258           4.659           4.562           4.794           4.423           4.786
  8830           5.998           0.258           4.659           4.567           4.799           4.429           4.791
  8840           5.998           0.258           4.659           4.572           4.805           4.434           4.797
  8850           5.998           0.258           4.659           4.577           4.810           4.439           4.802
  8860           5.998           0.258           4.659           4.582           4.816           4.445           4.808
  8870           5.998           0.258           4.659           4.588           4.821           4.450           4.813
  8880           5.998           0.258           4.659           4.593           4.826           4.456           4.818
  8890           5.998           0.258           4.659           4.598           4.832           4.461           4.824
  8900           5.998           0.258           4.659           4.603           4.837           4.466           4.829
  8910           5.998           0.258           4.659           4.608           4.843           4.472           4.835
  8920           5.998           0.258           4.659           4.613           4.848           4.477           4.840
  8930           5.998           0.258           4.659           4.619           4.853           4.483           4.846
  8940           5.998           0.258           4.659           4.624           4.859           4.488           4.851
  8950           5.998           0.258           4.659           4.629           4.864           4.494           4.856
  8960           5.998           0.258           4.659           4.634           4.870           4.499           4.862
  8970           5.998           0.258           4.659           4.639           4.875           4.504           4.867
  8980           5.998           0.258           4.659           4.644           4.881           4.510           4.873
  8990           5.998           0.258           4.659           4.650           4.886           4.515           4.878
  9000           5.998           0.258           4.659           4.655           4.891           4.521           4.884
  9010           5.998           0.258           4.659           4.660           4.897           4.526           4.889
  9020           5.998           0.258           4.659           4.665           4.902           4.532           4.895
  9030           5.998           0.258           4.659           4.670           4.908           4.537           4.900
  9040           5.998           0.258           4.659           4.675           4.913           4.542           4.905
  9050           5.998           0.258           4.659           4.681           4.919           4.548           4.911
  9060           5.998           0.258           4.659           4.686           4.924           4.553           4.916
  9070           5.998           0.258           4.659           4.691           4.929           4.559           4.922
  9080           5.998           0.258           4.659           4.696           4.935           4.564           4.927
  9090           5.998           0.258           4.659           4.701           4.940           4.570           4.933
  9100           5.998           0.258           4.659           4.706           4.946           4.575           4.938
  9110           5.998           0.258           4.659           4.712           4.951           4.580           4.943
  9120           5.998           0.258           4.659           4.717           4.957           4.586           4.949
  9130           5.998           0.258           4.659           4.722           4.962           4.591           4.954
  9140           5.998           0.258           4.659           4.727           4.967           4.597           4.960
  9150           5.998           0.258           4.659           4.732           4.973           4.602           4.965
  9160           5.998           0.258           4.659           4.737           4.978           4.607           4.971
  9170           5.998           0.258           4.659           4.743           4.984           4.613           4.976
  9180           5.998           0.258           4.659           4.748           4.989           4.618           4.981
  9190           5.998           0.258           4.659           4.753           4.995           4.624           4.987
  9200           5.998           0.258           4.659           4.758           5.000           4.629           4.992
  9210           5.998           0.258           4.659           4.763           5.005           4.635           4.998
  9220           5.998           0.258           4.659           4.768           5.011           4.640           5.003
  9230           5.998           0.258           4.659           4.774           5.016           4.645           5.009
  9240           5.998           0.258           4.659           4.779           5.022           4.651           5.014
  9250           5.998           0.258           4.659           4.784           5.027           4.656           5.019
  9260           5.998           0.258           4.659           4.789           5.032           4.662           5.025
  9270           5.998           0.258           4.659           4.794           5.038           4.667           5.030
  9280           5.998           0.258           4.659           4.799           5.043           4.673           5.036
  9290           5.998           0.258           4.659           4.805           5.049           4.678           5.041
  9300           5.998           0.258           4.660           4.810           5.054           4.683           5.047
  9310           5.998           0.258           4.660           4.815           5.060           4.689           5.052
  9320           5.998           0.258           4.660           4.820           5.065           4.694           5.057
  9330           5.998           0.258           4.660           4.825           5.070           4.700           5.063
  9340           5.998           0.258           4.660           4.830           5.076           4.705           5.068
  9350           5.998           0.258           4.660           4.836           5.081           4.711           5.074
  9360           5.998           0.258           4.660           4.841           5.087           4.716           5.079
  9370           5.998           0.258           4.660           4.846           5.092           4.721           5.085
  9380           5.998           0.258           4.660           4.851           5.098           4.727           5.090
  9390           5.998           0.258           4.660           4.856           5.103           4.732           5.095
  9400           5.998           0.258           4.660           4.861           5.108           4.738           5.101
  9410           5.998           0.258           4.660           4.867           5.114           4.743           5.106
  9420           5.998           0.258           4.660           4.872           5.119           4.748           5.112
  9430           5.998           0.258           4.660           4.877           5.125           4.754           5.117
  9440           5.998           0.258           4.660           4.882           5.130           4.759           5.123
  9450           5.998           0.258           4.660           4.887           5.136           4.765           5.128
  9460           5.998           0.258           4.660           4.892           5.141           4.770           5.133
  9470           5.998           0.258           4.660           4.898           5.146           4.776           5.139
  9480           5.998           0.258           4.660           4.903           5.152           4.781           5.144
  9490           5.998           0.258           4.660           4.908           5.157           4.786           5.150
  9500           5.998           0.258           4.660           4.913           5.163           4.792           5.155
  9510           5.998           0.258           4.660           4.918           5.168           4.797           5.161
  9520           5.998           0.258           4.660           4.923           5.173           4.803           5.166
  9530           5.998           0.258           4.660           4.929           5.179           4.808           5.172
  9540           5.998           0.258           4.660           4.934           5.184           4.814           5.177
  9550           5.998           0.258           4.660           4.939           5.190           4.819           5.182
  9560           5.998           0.258           4.660           4.944           5.195           4.824           5.188
  9570           5.998           0.258           4.660           4.949           5.201           4.830           5.193
  9580           5.998           0.258           4.660           4.954           5.206           4.835           5.199
  9590           5.998           0.258           4.660           4.960           5.211           4.841           5.204
  9600           5.998           0.258           4.660           4.965           5.217           4.846           5.210
  9610           5.998           0.258           4.660           4.970           5.222           4.852           5.215
  9620           5.998           0.258           4.660           4.975           5.228           4.857           5.220
  9630           5.999           0.258           4.660           4.980           5.233           4.862           5.226
  9640           5.999           0.258           4.660           4.986           5.239           4.868           5.231
  9650           5.999           0.258           4.660           4.991           5.244           4.873           5.237
  9660           5.999           0.258           4.660           4.996           5.249           4.879           5.242
  9670           5.999           0.258           4.660           5.001           5.255           4.884           5.248
  9680           5.999           0.258           4.660           5.006           5.260           4.890           5.253
  9690           5.999           0.258           4.660           5.011           5.266           4.895           5.258
  9700           5.999           0.258           4.660           5.017           5.271           4.900           5.264
  9710           5.999           0.258           4.660           5.022           5.277           4.906           5.269
  9720           5.999           0.258           4.660           5.027           5.282           4.911           5.275
  9730           5.999           0.258           4.660           5.032           5.287           4.917           5.280
  9740           5.999           0.258           4.660           5.037           5.293           4.922           5.286
  9750           5.999           0.258           4.660           5.042           5.298           4.927           5.291
  9760           5.999           0.258           4.660           5.048           5.304           4.933           5.296
  9770           5.999           0.258           4.660           5.053           5.309           4.938           5.302
  9780           5.999           0.258           4.660           5.058           5.315           4.944           5.307
  9790           5.999           0.258           4.660           5.063           5.320           4.949           5.313
  9800           5.999           0.258           4.660           5.068           5.325           4.955           5.318
  9810           5.999           0.258           4.660           5.073           5.331           4.960           5.324
  9820           5.999           0.258           4.660           5.079           5.336           4.965           5.329
  9830           5.999           0.258           4.660           5.084           5.342           4.971           5.334
  9840           5.999           0.258           4.660           5.089           5.347           4.976           5.340
  9850           5.999           0.258           4.660           5.094           5.352           4.982           5.345
  9860           5.999           0.258           4.660           5.099           5.358           4.987           5.351
  9870           5.999           0.258           4.660           5.104           5.363           4.993           5.356
  9880           5.999           0.258           4.660           5.110           5.369           4.998           5.362
  9890           5.999           0.258           4.660           5.115           5.374           5.003           5.367
  9900           5.999           0.258           4.660           5.120           5.380           5.009           5.372
  9910           5.999           0.258           4.660           5.125           5.385           5.014           5.378
  9920           5.999           0.258           4.660           5.130           5.390           5.020           5.383
  9930           5.999           0.258           4.660           5.135           5.396           5.025           5.389
  9940           5.999           0.258           4.660           5.141           5.401           5.031           5.394
  9950           5.999           0.258           4.660           5.146           5.407           5.036           5.400
  9960           5.999           0.258           4.660           5.151           5.412           5.041           5.405
  9970           5.999           0.258           4.660           5.156           5.418           5.047           5.411
  9980           5.999           0.258           4.660           5.161           5.423           5.052           5.416
  9990           5.999           0.258           4.660           5.166           5.428           5.058           5.421
 10000           5.999           0.258           4.660           5.172           5.434           5.060           5.427
