#   T(K)    C_v(k_B/fu)        Gamma     alpha_v*10^6(K^-1)   E_th(eV)                       P_th(GPa)
#                                                                         ----------------------------------------------
#                                                                          {sum G_i.U_iV}  {int G.C_v/V dT}    {G.U/V}
# ----------------------------------------------------------------------------------------------------------------------
    10           0.001          -0.998          -0.002           0.125           0.394          -0.000          -0.508
    20           0.035          -1.200          -0.124           0.125           0.394          -0.000          -0.611
    30           0.157          -1.316          -0.620           0.125           0.394          -0.001          -0.670
    40           0.366          -1.311          -1.435           0.125           0.392          -0.003          -0.668
    50           0.615          -1.264          -2.324           0.126           0.390          -0.005          -0.647
    60           0.868          -1.197          -3.107           0.126           0.387          -0.009          -0.616
    70           1.114          -1.114          -3.707           0.127           0.383          -0.013          -0.576
    80           1.351          -1.016          -4.105           0.128           0.378          -0.018          -0.530
    90           1.584          -0.910          -4.310           0.130           0.373          -0.023          -0.480
   100           1.814          -0.802          -4.348           0.131           0.368          -0.028          -0.427
   110           2.041          -0.696          -4.249           0.133           0.363          -0.033          -0.376
   120           2.264          -0.598          -4.046           0.135           0.358          -0.038          -0.327
   130           2.481          -0.508          -3.766           0.137           0.354          -0.042          -0.282
   140           2.691          -0.427          -3.433           0.139           0.350          -0.046          -0.241
   150           2.892          -0.355          -3.069           0.141           0.346          -0.050          -0.204
   160           3.083          -0.292          -2.688           0.144           0.342          -0.053          -0.171
   170           3.263          -0.236          -2.302           0.147           0.339          -0.056          -0.141
   180           3.432          -0.187          -1.919           0.149           0.337          -0.058          -0.114
   190           3.591          -0.144          -1.546           0.152           0.335          -0.060          -0.089
   200           3.738          -0.106          -1.187           0.156           0.333          -0.061          -0.067
   210           3.876          -0.073          -0.843           0.159           0.332          -0.062          -0.047
   220           4.003          -0.043          -0.516           0.162           0.331          -0.063          -0.028
   230           4.122          -0.017          -0.208           0.166           0.331          -0.063          -0.011
   240           4.231           0.007           0.083           0.169           0.331          -0.063           0.005
   250           4.333           0.027           0.356           0.173           0.331          -0.063           0.019
   260           4.427           0.046           0.612           0.177           0.332          -0.062           0.033
   270           4.515           0.063           0.851           0.181           0.332          -0.061           0.046
   280           4.596           0.078           1.076           0.185           0.334          -0.060           0.059
   290           4.671           0.092           1.285           0.189           0.335          -0.058           0.071
   300           4.741           0.105           1.482           0.193           0.337          -0.056           0.082
   310           4.806           0.116           1.665           0.197           0.338          -0.054           0.093
   320           4.866           0.126           1.837           0.201           0.341          -0.052           0.103
   330           4.923           0.136           1.997           0.205           0.343          -0.050           0.113
   340           4.975           0.144           2.147           0.209           0.345          -0.047           0.123
   350           5.024           0.152           2.288           0.214           0.348          -0.045           0.133
   360           5.070           0.160           2.420           0.218           0.351          -0.042           0.142
   370           5.113           0.166           2.544           0.222           0.353          -0.039           0.151
   380           5.153           0.173           2.661           0.227           0.357          -0.036           0.159
   390           5.190           0.179           2.770           0.231           0.360          -0.033           0.168
   400           5.226           0.184           2.873           0.236           0.363          -0.029           0.176
   410           5.259           0.189           2.969           0.240           0.366          -0.026           0.185
   420           5.290           0.194           3.060           0.245           0.370          -0.022           0.193
   430           5.319           0.198           3.146           0.249           0.374          -0.018           0.201
   440           5.346           0.202           3.227           0.254           0.377          -0.015           0.209
   450           5.372           0.206           3.304           0.259           0.381          -0.011           0.217
   460           5.397           0.209           3.376           0.263           0.385          -0.007           0.224
   470           5.420           0.213           3.445           0.268           0.389          -0.003           0.232
   480           5.442           0.216           3.509           0.273           0.393           0.001           0.239
   490           5.463           0.219           3.571           0.277           0.397           0.006           0.247
   500           5.482           0.221           3.629           0.282           0.402           0.010           0.254
   510           5.501           0.224           3.684           0.287           0.406           0.014           0.261
   520           5.518           0.226           3.736           0.292           0.410           0.018           0.269
   530           5.535           0.229           3.786           0.296           0.415           0.023           0.276
   540           5.551           0.231           3.834           0.301           0.419           0.027           0.283
   550           5.566           0.233           3.879           0.306           0.424           0.032           0.290
   560           5.581           0.235           3.922           0.311           0.428           0.037           0.297
   570           5.594           0.237           3.962           0.315           0.433           0.041           0.304
   580           5.607           0.239           4.001           0.320           0.438           0.046           0.311
   590           5.620           0.240           4.039           0.325           0.442           0.051           0.318
   600           5.632           0.242           4.074           0.330           0.447           0.055           0.325
   610           5.643           0.244           4.108           0.335           0.452           0.060           0.332
   620           5.654           0.245           4.141           0.340           0.457           0.065           0.339
   630           5.664           0.246           4.172           0.345           0.461           0.070           0.346
   640           5.674           0.248           4.201           0.349           0.466           0.075           0.352
   650           5.684           0.249           4.230           0.354           0.471           0.080           0.359
   660           5.693           0.250           4.257           0.359           0.476           0.085           0.366
   670           5.701           0.251           4.283           0.364           0.481           0.090           0.372
   680           5.710           0.252           4.308           0.369           0.486           0.095           0.379
   690           5.718           0.253           4.332           0.374           0.491           0.100           0.386
   700           5.725           0.254           4.355           0.379           0.497           0.105           0.392
   710           5.733           0.255           4.377           0.384           0.502           0.110           0.399
   720           5.740           0.256           4.399           0.389           0.507           0.115           0.406
   730           5.747           0.257           4.419           0.394           0.512           0.121           0.412
   740           5.753           0.258           4.439           0.399           0.517           0.126           0.419
   750           5.759           0.259           4.458           0.404           0.522           0.131           0.425
   760           5.765           0.260           4.476           0.409           0.528           0.136           0.432
   770           5.771           0.260           4.494           0.414           0.533           0.142           0.438
   780           5.777           0.261           4.511           0.419           0.538           0.147           0.445
   790           5.782           0.262           4.527           0.424           0.543           0.152           0.452
   800           5.788           0.263           4.543           0.429           0.549           0.158           0.458
   810           5.793           0.263           4.558           0.434           0.554           0.163           0.464
   820           5.798           0.264           4.573           0.439           0.560           0.168           0.471
   830           5.802           0.264           4.587           0.444           0.565           0.174           0.477
   840           5.807           0.265           4.601           0.449           0.570           0.179           0.484
   850           5.811           0.266           4.614           0.454           0.576           0.184           0.490
   860           5.815           0.266           4.627           0.459           0.581           0.190           0.497
   870           5.820           0.267           4.639           0.464           0.587           0.195           0.503
   880           5.824           0.267           4.651           0.469           0.592           0.201           0.510
   890           5.827           0.268           4.663           0.474           0.597           0.206           0.516
   900           5.831           0.268           4.674           0.479           0.603           0.212           0.522
   910           5.835           0.269           4.685           0.484           0.608           0.217           0.529
   920           5.838           0.269           4.696           0.489           0.614           0.223           0.535
   930           5.842           0.269           4.706           0.494           0.619           0.228           0.542
   940           5.845           0.270           4.716           0.499           0.625           0.234           0.548
   950           5.848           0.270           4.725           0.504           0.630           0.239           0.554
   960           5.851           0.271           4.735           0.509           0.636           0.245           0.561
   970           5.854           0.271           4.744           0.514           0.642           0.250           0.567
   980           5.857           0.271           4.753           0.519           0.647           0.256           0.573
   990           5.860           0.272           4.761           0.524           0.653           0.262           0.580
  1000           5.862           0.272           4.769           0.529           0.658           0.267           0.586
  1010           5.865           0.272           4.777           0.534           0.664           0.273           0.592
  1020           5.868           0.273           4.785           0.539           0.670           0.278           0.599
  1030           5.870           0.273           4.793           0.544           0.675           0.284           0.605
  1040           5.873           0.273           4.800           0.549           0.681           0.290           0.611
  1050           5.875           0.274           4.807           0.554           0.686           0.295           0.618
  1060           5.877           0.274           4.814           0.559           0.692           0.301           0.624
  1070           5.880           0.274           4.821           0.564           0.698           0.307           0.630
  1080           5.882           0.275           4.828           0.570           0.703           0.312           0.636
  1090           5.884           0.275           4.834           0.575           0.709           0.318           0.643
  1100           5.886           0.275           4.841           0.580           0.715           0.324           0.649
  1110           5.888           0.275           4.847           0.585           0.720           0.329           0.655
  1120           5.890           0.276           4.853           0.590           0.726           0.335           0.662
  1130           5.892           0.276           4.858           0.595           0.732           0.341           0.668
  1140           5.894           0.276           4.864           0.600           0.738           0.346           0.674
  1150           5.896           0.276           4.869           0.605           0.743           0.352           0.680
  1160           5.897           0.277           4.875           0.610           0.749           0.358           0.687
  1170           5.899           0.277           4.880           0.615           0.755           0.364           0.693
  1180           5.901           0.277           4.885           0.620           0.760           0.369           0.699
  1190           5.902           0.277           4.890           0.625           0.766           0.375           0.705
  1200           5.904           0.277           4.895           0.630           0.772           0.381           0.712
  1210           5.905           0.278           4.900           0.636           0.778           0.387           0.718
  1220           5.907           0.278           4.904           0.641           0.783           0.392           0.724
  1230           5.908           0.278           4.909           0.646           0.789           0.398           0.730
  1240           5.910           0.278           4.913           0.651           0.795           0.404           0.737
  1250           5.911           0.278           4.918           0.656           0.801           0.410           0.743
  1260           5.913           0.278           4.922           0.661           0.806           0.415           0.749
  1270           5.914           0.279           4.926           0.666           0.812           0.421           0.755
  1280           5.915           0.279           4.930           0.671           0.818           0.427           0.762
  1290           5.917           0.279           4.934           0.676           0.824           0.433           0.768
  1300           5.918           0.279           4.938           0.681           0.830           0.438           0.774
  1310           5.919           0.279           4.941           0.687           0.835           0.444           0.780
  1320           5.920           0.279           4.945           0.692           0.841           0.450           0.786
  1330           5.922           0.280           4.949           0.697           0.847           0.456           0.793
  1340           5.923           0.280           4.952           0.702           0.853           0.462           0.799
  1350           5.924           0.280           4.956           0.707           0.859           0.468           0.805
  1360           5.925           0.280           4.959           0.712           0.864           0.473           0.811
  1370           5.926           0.280           4.962           0.717           0.870           0.479           0.818
  1380           5.927           0.280           4.965           0.722           0.876           0.485           0.824
  1390           5.928           0.280           4.969           0.727           0.882           0.491           0.830
  1400           5.929           0.280           4.972           0.732           0.888           0.497           0.836
  1410           5.930           0.281           4.975           0.738           0.894           0.502           0.842
  1420           5.931           0.281           4.978           0.743           0.899           0.508           0.849
  1430           5.932           0.281           4.980           0.748           0.905           0.514           0.855
  1440           5.933           0.281           4.983           0.753           0.911           0.520           0.861
  1450           5.934           0.281           4.986           0.758           0.917           0.526           0.867
  1460           5.935           0.281           4.989           0.763           0.923           0.532           0.873
  1470           5.936           0.281           4.991           0.768           0.929           0.538           0.880
  1480           5.937           0.281           4.994           0.773           0.934           0.543           0.886
  1490           5.937           0.281           4.997           0.778           0.940           0.549           0.892
  1500           5.938           0.282           4.999           0.784           0.946           0.555           0.898
  1510           5.939           0.282           5.002           0.789           0.952           0.561           0.904
  1520           5.940           0.282           5.004           0.794           0.958           0.567           0.910
  1530           5.941           0.282           5.006           0.799           0.964           0.573           0.917
  1540           5.941           0.282           5.009           0.804           0.970           0.579           0.923
  1550           5.942           0.282           5.011           0.809           0.976           0.585           0.929
  1560           5.943           0.282           5.013           0.814           0.981           0.590           0.935
  1570           5.944           0.282           5.015           0.819           0.987           0.596           0.941
  1580           5.944           0.282           5.017           0.825           0.993           0.602           0.948
  1590           5.945           0.282           5.020           0.830           0.999           0.608           0.954
  1600           5.946           0.283           5.022           0.835           1.005           0.614           0.960
  1610           5.946           0.283           5.024           0.840           1.011           0.620           0.966
  1620           5.947           0.283           5.026           0.845           1.017           0.626           0.972
  1630           5.948           0.283           5.028           0.850           1.023           0.632           0.978
  1640           5.948           0.283           5.030           0.855           1.029           0.638           0.985
  1650           5.949           0.283           5.031           0.860           1.034           0.643           0.991
  1660           5.949           0.283           5.033           0.866           1.040           0.649           0.997
  1670           5.950           0.283           5.035           0.871           1.046           0.655           1.003
  1680           5.951           0.283           5.037           0.876           1.052           0.661           1.009
  1690           5.951           0.283           5.039           0.881           1.058           0.667           1.015
  1700           5.952           0.283           5.040           0.886           1.064           0.673           1.022
  1710           5.952           0.283           5.042           0.891           1.070           0.679           1.028
  1720           5.953           0.283           5.044           0.896           1.076           0.685           1.034
  1730           5.953           0.283           5.045           0.901           1.082           0.691           1.040
  1740           5.954           0.284           5.047           0.907           1.088           0.697           1.046
  1750           5.954           0.284           5.049           0.912           1.094           0.703           1.052
  1760           5.955           0.284           5.050           0.917           1.099           0.708           1.059
  1770           5.955           0.284           5.052           0.922           1.105           0.714           1.065
  1780           5.956           0.284           5.053           0.927           1.111           0.720           1.071
  1790           5.956           0.284           5.055           0.932           1.117           0.726           1.077
  1800           5.957           0.284           5.056           0.937           1.123           0.732           1.083
  1810           5.957           0.284           5.058           0.943           1.129           0.738           1.089
  1820           5.958           0.284           5.059           0.948           1.135           0.744           1.095
  1830           5.958           0.284           5.060           0.953           1.141           0.750           1.102
  1840           5.959           0.284           5.062           0.958           1.147           0.756           1.108
  1850           5.959           0.284           5.063           0.963           1.153           0.762           1.114
  1860           5.960           0.284           5.064           0.968           1.159           0.768           1.120
  1870           5.960           0.284           5.066           0.973           1.165           0.774           1.126
  1880           5.961           0.284           5.067           0.978           1.171           0.780           1.132
  1890           5.961           0.284           5.068           0.984           1.177           0.786           1.139
  1900           5.961           0.284           5.070           0.989           1.183           0.792           1.145
  1910           5.962           0.285           5.071           0.994           1.189           0.798           1.151
  1920           5.962           0.285           5.072           0.999           1.194           0.804           1.157
  1930           5.963           0.285           5.073           1.004           1.200           0.809           1.163
  1940           5.963           0.285           5.074           1.009           1.206           0.815           1.169
  1950           5.963           0.285           5.075           1.014           1.212           0.821           1.175
  1960           5.964           0.285           5.077           1.020           1.218           0.827           1.182
  1970           5.964           0.285           5.078           1.025           1.224           0.833           1.188
  1980           5.964           0.285           5.079           1.030           1.230           0.839           1.194
  1990           5.965           0.285           5.080           1.035           1.236           0.845           1.200
  2000           5.965           0.285           5.081           1.040           1.242           0.851           1.206
  2010           5.965           0.285           5.082           1.045           1.248           0.857           1.212
  2020           5.966           0.285           5.083           1.050           1.254           0.863           1.218
  2030           5.966           0.285           5.084           1.056           1.260           0.869           1.225
  2040           5.966           0.285           5.085           1.061           1.266           0.875           1.231
  2050           5.967           0.285           5.086           1.066           1.272           0.881           1.237
  2060           5.967           0.285           5.087           1.071           1.278           0.887           1.243
  2070           5.967           0.285           5.088           1.076           1.284           0.893           1.249
  2080           5.968           0.285           5.089           1.081           1.290           0.899           1.255
  2090           5.968           0.285           5.090           1.086           1.296           0.905           1.261
  2100           5.968           0.285           5.091           1.092           1.302           0.911           1.267
  2110           5.969           0.285           5.092           1.097           1.308           0.917           1.274
  2120           5.969           0.285           5.093           1.102           1.314           0.923           1.280
  2130           5.969           0.285           5.093           1.107           1.320           0.929           1.286
  2140           5.969           0.285           5.094           1.112           1.326           0.935           1.292
  2150           5.970           0.285           5.095           1.117           1.332           0.941           1.298
  2160           5.970           0.286           5.096           1.122           1.338           0.947           1.304
  2170           5.970           0.286           5.097           1.128           1.344           0.953           1.310
  2180           5.971           0.286           5.098           1.133           1.350           0.959           1.317
  2190           5.971           0.286           5.098           1.138           1.356           0.965           1.323
  2200           5.971           0.286           5.099           1.143           1.362           0.971           1.329
  2210           5.971           0.286           5.100           1.148           1.368           0.977           1.335
  2220           5.972           0.286           5.101           1.153           1.374           0.983           1.341
  2230           5.972           0.286           5.102           1.158           1.380           0.989           1.347
  2240           5.972           0.286           5.102           1.164           1.386           0.995           1.353
  2250           5.972           0.286           5.103           1.169           1.391           1.001           1.359
  2260           5.973           0.286           5.104           1.174           1.397           1.007           1.366
  2270           5.973           0.286           5.105           1.179           1.403           1.013           1.372
  2280           5.973           0.286           5.105           1.184           1.409           1.019           1.378
  2290           5.973           0.286           5.106           1.189           1.415           1.024           1.384
  2300           5.974           0.286           5.107           1.194           1.421           1.030           1.390
  2310           5.974           0.286           5.107           1.200           1.427           1.036           1.396
  2320           5.974           0.286           5.108           1.205           1.433           1.042           1.402
  2330           5.974           0.286           5.109           1.210           1.439           1.048           1.409
  2340           5.974           0.286           5.109           1.215           1.445           1.054           1.415
  2350           5.975           0.286           5.110           1.220           1.451           1.060           1.421
  2360           5.975           0.286           5.111           1.225           1.457           1.066           1.427
  2370           5.975           0.286           5.111           1.230           1.463           1.072           1.433
  2380           5.975           0.286           5.112           1.236           1.469           1.078           1.439
  2390           5.976           0.286           5.113           1.241           1.475           1.084           1.445
  2400           5.976           0.286           5.113           1.246           1.481           1.090           1.451
  2410           5.976           0.286           5.114           1.251           1.487           1.096           1.458
  2420           5.976           0.286           5.114           1.256           1.493           1.102           1.464
  2430           5.976           0.286           5.115           1.261           1.499           1.108           1.470
  2440           5.977           0.286           5.116           1.267           1.505           1.114           1.476
  2450           5.977           0.286           5.116           1.272           1.511           1.120           1.482
  2460           5.977           0.286           5.117           1.277           1.517           1.126           1.488
  2470           5.977           0.286           5.117           1.282           1.523           1.132           1.494
  2480           5.977           0.286           5.118           1.287           1.529           1.138           1.500
  2490           5.977           0.286           5.119           1.292           1.535           1.144           1.506
  2500           5.978           0.286           5.119           1.297           1.541           1.150           1.513
  2510           5.978           0.286           5.120           1.303           1.547           1.156           1.519
  2520           5.978           0.286           5.120           1.308           1.553           1.162           1.525
  2530           5.978           0.287           5.121           1.313           1.559           1.168           1.531
  2540           5.978           0.287           5.121           1.318           1.565           1.174           1.537
  2550           5.978           0.287           5.122           1.323           1.571           1.180           1.543
  2560           5.979           0.287           5.122           1.328           1.577           1.187           1.549
  2570           5.979           0.287           5.123           1.333           1.583           1.193           1.555
  2580           5.979           0.287           5.123           1.339           1.589           1.199           1.562
  2590           5.979           0.287           5.124           1.344           1.595           1.205           1.568
  2600           5.979           0.287           5.124           1.349           1.601           1.211           1.574
  2610           5.979           0.287           5.125           1.354           1.607           1.217           1.580
  2620           5.980           0.287           5.125           1.359           1.614           1.223           1.586
  2630           5.980           0.287           5.126           1.364           1.620           1.229           1.592
  2640           5.980           0.287           5.126           1.370           1.626           1.235           1.598
  2650           5.980           0.287           5.127           1.375           1.632           1.241           1.604
  2660           5.980           0.287           5.127           1.380           1.638           1.247           1.610
  2670           5.980           0.287           5.127           1.385           1.644           1.253           1.617
  2680           5.981           0.287           5.128           1.390           1.650           1.259           1.623
  2690           5.981           0.287           5.128           1.395           1.656           1.265           1.629
  2700           5.981           0.287           5.129           1.400           1.662           1.271           1.635
  2710           5.981           0.287           5.129           1.406           1.668           1.277           1.641
  2720           5.981           0.287           5.130           1.411           1.674           1.283           1.647
  2730           5.981           0.287           5.130           1.416           1.680           1.289           1.653
  2740           5.981           0.287           5.130           1.421           1.686           1.295           1.659
  2750           5.981           0.287           5.131           1.426           1.692           1.301           1.666
  2760           5.982           0.287           5.131           1.431           1.698           1.307           1.672
  2770           5.982           0.287           5.132           1.437           1.704           1.313           1.678
  2780           5.982           0.287           5.132           1.442           1.710           1.319           1.684
  2790           5.982           0.287           5.132           1.447           1.716           1.325           1.690
  2800           5.982           0.287           5.133           1.452           1.722           1.331           1.696
  2810           5.982           0.287           5.133           1.457           1.728           1.337           1.702
  2820           5.982           0.287           5.134           1.462           1.734           1.343           1.708
  2830           5.983           0.287           5.134           1.467           1.740           1.349           1.714
  2840           5.983           0.287           5.134           1.473           1.746           1.355           1.721
  2850           5.983           0.287           5.135           1.478           1.752           1.361           1.727
  2860           5.983           0.287           5.135           1.483           1.758           1.367           1.733
  2870           5.983           0.287           5.135           1.488           1.764           1.373           1.739
  2880           5.983           0.287           5.136           1.493           1.770           1.379           1.745
  2890           5.983           0.287           5.136           1.498           1.776           1.385           1.751
  2900           5.983           0.287           5.137           1.504           1.782           1.391           1.757
  2910           5.983           0.287           5.137           1.509           1.788           1.397           1.763
  2920           5.984           0.287           5.137           1.514           1.794           1.403           1.769
  2930           5.984           0.287           5.138           1.519           1.800           1.409           1.776
  2940           5.984           0.287           5.138           1.524           1.806           1.415           1.782
  2950           5.984           0.287           5.138           1.529           1.812           1.421           1.788
  2960           5.984           0.287           5.139           1.535           1.818           1.427           1.794
  2970           5.984           0.287           5.139           1.540           1.824           1.433           1.800
  2980           5.984           0.287           5.139           1.545           1.830           1.439           1.806
  2990           5.984           0.287           5.140           1.550           1.836           1.445           1.812
  3000           5.984           0.287           5.140           1.555           1.842           1.451           1.818
  3010           5.985           0.287           5.140           1.560           1.848           1.457           1.824
  3020           5.985           0.287           5.140           1.565           1.854           1.463           1.831
  3030           5.985           0.287           5.141           1.571           1.860           1.469           1.837
  3040           5.985           0.287           5.141           1.576           1.866           1.476           1.843
  3050           5.985           0.287           5.141           1.581           1.872           1.482           1.849
  3060           5.985           0.287           5.142           1.586           1.879           1.488           1.855
  3070           5.985           0.287           5.142           1.591           1.885           1.494           1.861
  3080           5.985           0.287           5.142           1.596           1.891           1.500           1.867
  3090           5.985           0.287           5.143           1.602           1.897           1.506           1.873
  3100           5.985           0.287           5.143           1.607           1.903           1.512           1.879
  3110           5.986           0.287           5.143           1.612           1.909           1.518           1.886
  3120           5.986           0.287           5.143           1.617           1.915           1.524           1.892
  3130           5.986           0.287           5.144           1.622           1.921           1.530           1.898
  3140           5.986           0.287           5.144           1.627           1.927           1.536           1.904
  3150           5.986           0.287           5.144           1.633           1.933           1.542           1.910
  3160           5.986           0.287           5.145           1.638           1.939           1.548           1.916
  3170           5.986           0.287           5.145           1.643           1.945           1.554           1.922
  3180           5.986           0.287           5.145           1.648           1.951           1.560           1.928
  3190           5.986           0.288           5.145           1.653           1.957           1.566           1.934
  3200           5.986           0.288           5.146           1.658           1.963           1.572           1.941
  3210           5.986           0.288           5.146           1.663           1.969           1.578           1.947
  3220           5.986           0.288           5.146           1.669           1.975           1.584           1.953
  3230           5.987           0.288           5.146           1.674           1.981           1.590           1.959
  3240           5.987           0.288           5.147           1.679           1.987           1.596           1.965
  3250           5.987           0.288           5.147           1.684           1.993           1.602           1.971
  3260           5.987           0.288           5.147           1.689           1.999           1.608           1.977
  3270           5.987           0.288           5.147           1.694           2.005           1.614           1.983
  3280           5.987           0.288           5.148           1.700           2.011           1.620           1.989
  3290           5.987           0.288           5.148           1.705           2.017           1.626           1.995
  3300           5.987           0.288           5.148           1.710           2.023           1.632           2.002
  3310           5.987           0.288           5.148           1.715           2.029           1.638           2.008
  3320           5.987           0.288           5.149           1.720           2.035           1.645           2.014
  3330           5.987           0.288           5.149           1.725           2.041           1.651           2.020
  3340           5.987           0.288           5.149           1.731           2.048           1.657           2.026
  3350           5.988           0.288           5.149           1.736           2.054           1.663           2.032
  3360           5.988           0.288           5.149           1.741           2.060           1.669           2.038
  3370           5.988           0.288           5.150           1.746           2.066           1.675           2.044
  3380           5.988           0.288           5.150           1.751           2.072           1.681           2.050
  3390           5.988           0.288           5.150           1.756           2.078           1.687           2.057
  3400           5.988           0.288           5.150           1.761           2.084           1.693           2.063
  3410           5.988           0.288           5.151           1.767           2.090           1.699           2.069
  3420           5.988           0.288           5.151           1.772           2.096           1.705           2.075
  3430           5.988           0.288           5.151           1.777           2.102           1.711           2.081
  3440           5.988           0.288           5.151           1.782           2.108           1.717           2.087
  3450           5.988           0.288           5.151           1.787           2.114           1.723           2.093
  3460           5.988           0.288           5.152           1.792           2.120           1.729           2.099
  3470           5.988           0.288           5.152           1.798           2.126           1.735           2.105
  3480           5.988           0.288           5.152           1.803           2.132           1.741           2.111
  3490           5.988           0.288           5.152           1.808           2.138           1.747           2.118
  3500           5.989           0.288           5.152           1.813           2.144           1.753           2.124
  3510           5.989           0.288           5.153           1.818           2.150           1.759           2.130
  3520           5.989           0.288           5.153           1.823           2.156           1.765           2.136
  3530           5.989           0.288           5.153           1.829           2.162           1.771           2.142
  3540           5.989           0.288           5.153           1.834           2.168           1.777           2.148
  3550           5.989           0.288           5.153           1.839           2.174           1.784           2.154
  3560           5.989           0.288           5.154           1.844           2.180           1.790           2.160
  3570           5.989           0.288           5.154           1.849           2.187           1.796           2.166
  3580           5.989           0.288           5.154           1.854           2.193           1.802           2.172
  3590           5.989           0.288           5.154           1.860           2.199           1.808           2.179
  3600           5.989           0.288           5.154           1.865           2.205           1.814           2.185
  3610           5.989           0.288           5.154           1.870           2.211           1.820           2.191
  3620           5.989           0.288           5.155           1.875           2.217           1.826           2.197
  3630           5.989           0.288           5.155           1.880           2.223           1.832           2.203
  3640           5.989           0.288           5.155           1.885           2.229           1.838           2.209
  3650           5.989           0.288           5.155           1.891           2.235           1.844           2.215
  3660           5.990           0.288           5.155           1.896           2.241           1.850           2.221
  3670           5.990           0.288           5.156           1.901           2.247           1.856           2.227
  3680           5.990           0.288           5.156           1.906           2.253           1.862           2.234
  3690           5.990           0.288           5.156           1.911           2.259           1.868           2.240
  3700           5.990           0.288           5.156           1.916           2.265           1.874           2.246
  3710           5.990           0.288           5.156           1.921           2.271           1.880           2.252
  3720           5.990           0.288           5.156           1.927           2.277           1.886           2.258
  3730           5.990           0.288           5.157           1.932           2.283           1.892           2.264
  3740           5.990           0.288           5.157           1.937           2.289           1.898           2.270
  3750           5.990           0.288           5.157           1.942           2.295           1.904           2.276
  3760           5.990           0.288           5.157           1.947           2.301           1.911           2.282
  3770           5.990           0.288           5.157           1.952           2.308           1.917           2.288
  3780           5.990           0.288           5.157           1.958           2.314           1.923           2.295
  3790           5.990           0.288           5.158           1.963           2.320           1.929           2.301
  3800           5.990           0.288           5.158           1.968           2.326           1.935           2.307
  3810           5.990           0.288           5.158           1.973           2.332           1.941           2.313
  3820           5.990           0.288           5.158           1.978           2.338           1.947           2.319
  3830           5.990           0.288           5.158           1.983           2.344           1.953           2.325
  3840           5.990           0.288           5.158           1.989           2.350           1.959           2.331
  3850           5.991           0.288           5.158           1.994           2.356           1.965           2.337
  3860           5.991           0.288           5.159           1.999           2.362           1.971           2.343
  3870           5.991           0.288           5.159           2.004           2.368           1.977           2.349
  3880           5.991           0.288           5.159           2.009           2.374           1.983           2.356
  3890           5.991           0.288           5.159           2.014           2.380           1.989           2.362
  3900           5.991           0.288           5.159           2.020           2.386           1.995           2.368
  3910           5.991           0.288           5.159           2.025           2.392           2.001           2.374
  3920           5.991           0.288           5.159           2.030           2.398           2.007           2.380
  3930           5.991           0.288           5.160           2.035           2.404           2.013           2.386
  3940           5.991           0.288           5.160           2.040           2.410           2.019           2.392
  3950           5.991           0.288           5.160           2.045           2.416           2.026           2.398
  3960           5.991           0.288           5.160           2.051           2.422           2.032           2.404
  3970           5.991           0.288           5.160           2.056           2.429           2.038           2.410
  3980           5.991           0.288           5.160           2.061           2.435           2.044           2.417
  3990           5.991           0.288           5.160           2.066           2.441           2.050           2.423
  4000           5.991           0.288           5.161           2.071           2.447           2.056           2.429
  4010           5.991           0.288           5.161           2.076           2.453           2.062           2.435
  4020           5.991           0.288           5.161           2.082           2.459           2.068           2.441
  4030           5.991           0.288           5.161           2.087           2.465           2.074           2.447
  4040           5.991           0.288           5.161           2.092           2.471           2.080           2.453
  4050           5.991           0.288           5.161           2.097           2.477           2.086           2.459
  4060           5.991           0.288           5.161           2.102           2.483           2.092           2.465
  4070           5.992           0.288           5.161           2.107           2.489           2.098           2.471
  4080           5.992           0.288           5.162           2.112           2.495           2.104           2.478
  4090           5.992           0.288           5.162           2.118           2.501           2.110           2.484
  4100           5.992           0.288           5.162           2.123           2.507           2.116           2.490
  4110           5.992           0.288           5.162           2.128           2.513           2.122           2.496
  4120           5.992           0.288           5.162           2.133           2.519           2.128           2.502
  4130           5.992           0.288           5.162           2.138           2.525           2.135           2.508
  4140           5.992           0.288           5.162           2.143           2.531           2.141           2.514
  4150           5.992           0.288           5.162           2.149           2.538           2.147           2.520
  4160           5.992           0.288           5.163           2.154           2.544           2.153           2.526
  4170           5.992           0.288           5.163           2.159           2.550           2.159           2.532
  4180           5.992           0.288           5.163           2.164           2.556           2.165           2.538
  4190           5.992           0.288           5.163           2.169           2.562           2.171           2.545
  4200           5.992           0.288           5.163           2.174           2.568           2.177           2.551
  4210           5.992           0.288           5.163           2.180           2.574           2.183           2.557
  4220           5.992           0.288           5.163           2.185           2.580           2.189           2.563
  4230           5.992           0.288           5.163           2.190           2.586           2.195           2.569
  4240           5.992           0.288           5.163           2.195           2.592           2.201           2.575
  4250           5.992           0.288           5.164           2.200           2.598           2.207           2.581
  4260           5.992           0.288           5.164           2.205           2.604           2.213           2.587
  4270           5.992           0.288           5.164           2.211           2.610           2.219           2.593
  4280           5.992           0.288           5.164           2.216           2.616           2.225           2.599
  4290           5.992           0.288           5.164           2.221           2.622           2.231           2.606
  4300           5.992           0.288           5.164           2.226           2.628           2.237           2.612
  4310           5.992           0.288           5.164           2.231           2.634           2.244           2.618
  4320           5.992           0.288           5.164           2.236           2.641           2.250           2.624
  4330           5.993           0.288           5.164           2.242           2.647           2.256           2.630
  4340           5.993           0.288           5.165           2.247           2.653           2.262           2.636
  4350           5.993           0.288           5.165           2.252           2.659           2.268           2.642
  4360           5.993           0.288           5.165           2.257           2.665           2.274           2.648
  4370           5.993           0.288           5.165           2.262           2.671           2.280           2.654
  4380           5.993           0.288           5.165           2.267           2.677           2.286           2.660
  4390           5.993           0.288           5.165           2.273           2.683           2.292           2.667
  4400           5.993           0.288           5.165           2.278           2.689           2.298           2.673
  4410           5.993           0.288           5.165           2.283           2.695           2.304           2.679
  4420           5.993           0.288           5.165           2.288           2.701           2.310           2.685
  4430           5.993           0.288           5.165           2.293           2.707           2.316           2.691
  4440           5.993           0.288           5.166           2.298           2.713           2.322           2.697
  4450           5.993           0.288           5.166           2.304           2.719           2.328           2.703
  4460           5.993           0.288           5.166           2.309           2.725           2.334           2.709
  4470           5.993           0.288           5.166           2.314           2.731           2.340           2.715
  4480           5.993           0.288           5.166           2.319           2.737           2.347           2.721
  4490           5.993           0.288           5.166           2.324           2.744           2.353           2.727
  4500           5.993           0.288           5.166           2.329           2.750           2.359           2.734
  4510           5.993           0.288           5.166           2.335           2.756           2.365           2.740
  4520           5.993           0.288           5.166           2.340           2.762           2.371           2.746
  4530           5.993           0.288           5.166           2.345           2.768           2.377           2.752
  4540           5.993           0.288           5.167           2.350           2.774           2.383           2.758
  4550           5.993           0.288           5.167           2.355           2.780           2.389           2.764
  4560           5.993           0.288           5.167           2.360           2.786           2.395           2.770
  4570           5.993           0.288           5.167           2.366           2.792           2.401           2.776
  4580           5.993           0.288           5.167           2.371           2.798           2.407           2.782
  4590           5.993           0.288           5.167           2.376           2.804           2.413           2.788
  4600           5.993           0.288           5.167           2.381           2.810           2.419           2.795
  4610           5.993           0.288           5.167           2.386           2.816           2.425           2.801
  4620           5.993           0.288           5.167           2.391           2.822           2.431           2.807
  4630           5.993           0.288           5.167           2.397           2.828           2.437           2.813
  4640           5.993           0.288           5.167           2.402           2.834           2.444           2.819
  4650           5.994           0.288           5.167           2.407           2.840           2.450           2.825
  4660           5.994           0.288           5.168           2.412           2.847           2.456           2.831
  4670           5.994           0.288           5.168           2.417           2.853           2.462           2.837
  4680           5.994           0.288           5.168           2.422           2.859           2.468           2.843
  4690           5.994           0.288           5.168           2.427           2.865           2.474           2.849
  4700           5.994           0.288           5.168           2.433           2.871           2.480           2.856
  4710           5.994           0.288           5.168           2.438           2.877           2.486           2.862
  4720           5.994           0.288           5.168           2.443           2.883           2.492           2.868
  4730           5.994           0.288           5.168           2.448           2.889           2.498           2.874
  4740           5.994           0.288           5.168           2.453           2.895           2.504           2.880
  4750           5.994           0.288           5.168           2.458           2.901           2.510           2.886
  4760           5.994           0.288           5.168           2.464           2.907           2.516           2.892
  4770           5.994           0.288           5.168           2.469           2.913           2.522           2.898
  4780           5.994           0.288           5.169           2.474           2.919           2.528           2.904
  4790           5.994           0.288           5.169           2.479           2.925           2.534           2.910
  4800           5.994           0.288           5.169           2.484           2.931           2.541           2.916
  4810           5.994           0.288           5.169           2.489           2.938           2.547           2.923
  4820           5.994           0.288           5.169           2.495           2.944           2.553           2.929
  4830           5.994           0.288           5.169           2.500           2.950           2.559           2.935
  4840           5.994           0.288           5.169           2.505           2.956           2.565           2.941
  4850           5.994           0.288           5.169           2.510           2.962           2.571           2.947
  4860           5.994           0.288           5.169           2.515           2.968           2.577           2.953
  4870           5.994           0.288           5.169           2.520           2.974           2.583           2.959
  4880           5.994           0.288           5.169           2.526           2.980           2.589           2.965
  4890           5.994           0.288           5.169           2.531           2.986           2.595           2.971
  4900           5.994           0.288           5.169           2.536           2.992           2.601           2.977
  4910           5.994           0.288           5.170           2.541           2.998           2.607           2.983
  4920           5.994           0.288           5.170           2.546           3.004           2.613           2.990
  4930           5.994           0.288           5.170           2.551           3.010           2.619           2.996
  4940           5.994           0.288           5.170           2.557           3.016           2.625           3.002
  4950           5.994           0.288           5.170           2.562           3.022           2.631           3.008
  4960           5.994           0.288           5.170           2.567           3.028           2.638           3.014
  4970           5.994           0.288           5.170           2.572           3.035           2.644           3.020
  4980           5.994           0.288           5.170           2.577           3.041           2.650           3.026
  4990           5.994           0.288           5.170           2.582           3.047           2.656           3.032
  5000           5.994           0.289           5.170           2.588           3.053           2.662           3.038
  5010           5.994           0.289           5.170           2.593           3.059           2.668           3.044
  5020           5.994           0.289           5.170           2.598           3.065           2.674           3.051
  5030           5.994           0.289           5.170           2.603           3.071           2.680           3.057
  5040           5.994           0.289           5.170           2.608           3.077           2.686           3.063
  5050           5.994           0.289           5.170           2.613           3.083           2.692           3.069
  5060           5.995           0.289           5.171           2.619           3.089           2.698           3.075
  5070           5.995           0.289           5.171           2.624           3.095           2.704           3.081
  5080           5.995           0.289           5.171           2.629           3.101           2.710           3.087
  5090           5.995           0.289           5.171           2.634           3.107           2.716           3.093
  5100           5.995           0.289           5.171           2.639           3.113           2.722           3.099
  5110           5.995           0.289           5.171           2.644           3.119           2.729           3.105
  5120           5.995           0.289           5.171           2.650           3.126           2.735           3.111
  5130           5.995           0.289           5.171           2.655           3.132           2.741           3.118
  5140           5.995           0.289           5.171           2.660           3.138           2.747           3.124
  5150           5.995           0.289           5.171           2.665           3.144           2.753           3.130
  5160           5.995           0.289           5.171           2.670           3.150           2.759           3.136
  5170           5.995           0.289           5.171           2.675           3.156           2.765           3.142
  5180           5.995           0.289           5.171           2.681           3.162           2.771           3.148
  5190           5.995           0.289           5.171           2.686           3.168           2.777           3.154
  5200           5.995           0.289           5.171           2.691           3.174           2.783           3.160
  5210           5.995           0.289           5.172           2.696           3.180           2.789           3.166
  5220           5.995           0.289           5.172           2.701           3.186           2.795           3.172
  5230           5.995           0.289           5.172           2.706           3.192           2.801           3.178
  5240           5.995           0.289           5.172           2.712           3.198           2.807           3.185
  5250           5.995           0.289           5.172           2.717           3.204           2.813           3.191
  5260           5.995           0.289           5.172           2.722           3.210           2.820           3.197
  5270           5.995           0.289           5.172           2.727           3.217           2.826           3.203
  5280           5.995           0.289           5.172           2.732           3.223           2.832           3.209
  5290           5.995           0.289           5.172           2.737           3.229           2.838           3.215
  5300           5.995           0.289           5.172           2.743           3.235           2.844           3.221
  5310           5.995           0.289           5.172           2.748           3.241           2.850           3.227
  5320           5.995           0.289           5.172           2.753           3.247           2.856           3.233
  5330           5.995           0.289           5.172           2.758           3.253           2.862           3.239
  5340           5.995           0.289           5.172           2.763           3.259           2.868           3.246
  5350           5.995           0.289           5.172           2.768           3.265           2.874           3.252
  5360           5.995           0.289           5.172           2.774           3.271           2.880           3.258
  5370           5.995           0.289           5.172           2.779           3.277           2.886           3.264
  5380           5.995           0.289           5.172           2.784           3.283           2.892           3.270
  5390           5.995           0.289           5.173           2.789           3.289           2.898           3.276
  5400           5.995           0.289           5.173           2.794           3.295           2.904           3.282
  5410           5.995           0.289           5.173           2.799           3.301           2.911           3.288
  5420           5.995           0.289           5.173           2.805           3.308           2.917           3.294
  5430           5.995           0.289           5.173           2.810           3.314           2.923           3.300
  5440           5.995           0.289           5.173           2.815           3.320           2.929           3.306
  5450           5.995           0.289           5.173           2.820           3.326           2.935           3.313
  5460           5.995           0.289           5.173           2.825           3.332           2.941           3.319
  5470           5.995           0.289           5.173           2.830           3.338           2.947           3.325
  5480           5.995           0.289           5.173           2.836           3.344           2.953           3.331
  5490           5.995           0.289           5.173           2.841           3.350           2.959           3.337
  5500           5.995           0.289           5.173           2.846           3.356           2.965           3.343
  5510           5.995           0.289           5.173           2.851           3.362           2.971           3.349
  5520           5.995           0.289           5.173           2.856           3.368           2.977           3.355
  5530           5.995           0.289           5.173           2.861           3.374           2.983           3.361
  5540           5.995           0.289           5.173           2.867           3.380           2.989           3.367
  5550           5.995           0.289           5.173           2.872           3.386           2.996           3.373
  5560           5.995           0.289           5.173           2.877           3.393           3.002           3.380
  5570           5.995           0.289           5.173           2.882           3.399           3.008           3.386
  5580           5.995           0.289           5.174           2.887           3.405           3.014           3.392
  5590           5.996           0.289           5.174           2.892           3.411           3.020           3.398
  5600           5.996           0.289           5.174           2.898           3.417           3.026           3.404
  5610           5.996           0.289           5.174           2.903           3.423           3.032           3.410
  5620           5.996           0.289           5.174           2.908           3.429           3.038           3.416
  5630           5.996           0.289           5.174           2.913           3.435           3.044           3.422
  5640           5.996           0.289           5.174           2.918           3.441           3.050           3.428
  5650           5.996           0.289           5.174           2.923           3.447           3.056           3.434
  5660           5.996           0.289           5.174           2.929           3.453           3.062           3.440
  5670           5.996           0.289           5.174           2.934           3.459           3.068           3.447
  5680           5.996           0.289           5.174           2.939           3.465           3.074           3.453
  5690           5.996           0.289           5.174           2.944           3.471           3.080           3.459
  5700           5.996           0.289           5.174           2.949           3.477           3.087           3.465
  5710           5.996           0.289           5.174           2.954           3.484           3.093           3.471
  5720           5.996           0.289           5.174           2.960           3.490           3.099           3.477
  5730           5.996           0.289           5.174           2.965           3.496           3.105           3.483
  5740           5.996           0.289           5.174           2.970           3.502           3.111           3.489
  5750           5.996           0.289           5.174           2.975           3.508           3.117           3.495
  5760           5.996           0.289           5.174           2.980           3.514           3.123           3.501
  5770           5.996           0.289           5.174           2.985           3.520           3.129           3.507
  5780           5.996           0.289           5.174           2.991           3.526           3.135           3.514
  5790           5.996           0.289           5.174           2.996           3.532           3.141           3.520
  5800           5.996           0.289           5.175           3.001           3.538           3.147           3.526
  5810           5.996           0.289           5.175           3.006           3.544           3.153           3.532
  5820           5.996           0.289           5.175           3.011           3.550           3.159           3.538
  5830           5.996           0.289           5.175           3.016           3.556           3.165           3.544
  5840           5.996           0.289           5.175           3.022           3.562           3.172           3.550
  5850           5.996           0.289           5.175           3.027           3.569           3.178           3.556
  5860           5.996           0.289           5.175           3.032           3.575           3.184           3.562
  5870           5.996           0.289           5.175           3.037           3.581           3.190           3.568
  5880           5.996           0.289           5.175           3.042           3.587           3.196           3.575
  5890           5.996           0.289           5.175           3.047           3.593           3.202           3.581
  5900           5.996           0.289           5.175           3.053           3.599           3.208           3.587
  5910           5.996           0.289           5.175           3.058           3.605           3.214           3.593
  5920           5.996           0.289           5.175           3.063           3.611           3.220           3.599
  5930           5.996           0.289           5.175           3.068           3.617           3.226           3.605
  5940           5.996           0.289           5.175           3.073           3.623           3.232           3.611
  5950           5.996           0.289           5.175           3.078           3.629           3.238           3.617
  5960           5.996           0.289           5.175           3.084           3.635           3.244           3.623
  5970           5.996           0.289           5.175           3.089           3.641           3.250           3.629
  5980           5.996           0.289           5.175           3.094           3.647           3.257           3.635
  5990           5.996           0.289           5.175           3.099           3.654           3.263           3.642
  6000           5.996           0.289           5.175           3.104           3.660           3.269           3.648
  6010           5.996           0.289           5.175           3.109           3.666           3.275           3.654
  6020           5.996           0.289           5.175           3.115           3.672           3.281           3.660
  6030           5.996           0.289           5.175           3.120           3.678           3.287           3.666
  6040           5.996           0.289           5.176           3.125           3.684           3.293           3.672
  6050           5.996           0.289           5.176           3.130           3.690           3.299           3.678
  6060           5.996           0.289           5.176           3.135           3.696           3.305           3.684
  6070           5.996           0.289           5.176           3.140           3.702           3.311           3.690
  6080           5.996           0.289           5.176           3.146           3.708           3.317           3.696
  6090           5.996           0.289           5.176           3.151           3.714           3.323           3.702
  6100           5.996           0.289           5.176           3.156           3.720           3.329           3.709
  6110           5.996           0.289           5.176           3.161           3.726           3.335           3.715
  6120           5.996           0.289           5.176           3.166           3.732           3.342           3.721
  6130           5.996           0.289           5.176           3.171           3.739           3.348           3.727
  6140           5.996           0.289           5.176           3.177           3.745           3.354           3.733
  6150           5.996           0.289           5.176           3.182           3.751           3.360           3.739
  6160           5.996           0.289           5.176           3.187           3.757           3.366           3.745
  6170           5.996           0.289           5.176           3.192           3.763           3.372           3.751
  6180           5.996           0.289           5.176           3.197           3.769           3.378           3.757
  6190           5.996           0.289           5.176           3.202           3.775           3.384           3.763
  6200           5.996           0.289           5.176           3.208           3.781           3.390           3.769
  6210           5.996           0.289           5.176           3.213           3.787           3.396           3.776
  6220           5.996           0.289           5.176           3.218           3.793           3.402           3.782
  6230           5.996           0.289           5.176           3.223           3.799           3.408           3.788
  6240           5.996           0.289           5.176           3.228           3.805           3.414           3.794
  6250           5.996           0.289           5.176           3.233           3.811           3.420           3.800
  6260           5.996           0.289           5.176           3.239           3.817           3.427           3.806
  6270           5.996           0.289           5.176           3.244           3.824           3.433           3.812
  6280           5.996           0.289           5.176           3.249           3.830           3.439           3.818
  6290           5.996           0.289           5.176           3.254           3.836           3.445           3.824
  6300           5.996           0.289           5.176           3.259           3.842           3.451           3.830
  6310           5.996           0.289           5.177           3.264           3.848           3.457           3.836
  6320           5.996           0.289           5.177           3.270           3.854           3.463           3.843
  6330           5.996           0.289           5.177           3.275           3.860           3.469           3.849
  6340           5.997           0.289           5.177           3.280           3.866           3.475           3.855
  6350           5.997           0.289           5.177           3.285           3.872           3.481           3.861
  6360           5.997           0.289           5.177           3.290           3.878           3.487           3.867
  6370           5.997           0.289           5.177           3.295           3.884           3.493           3.873
  6380           5.997           0.289           5.177           3.301           3.890           3.499           3.879
  6390           5.997           0.289           5.177           3.306           3.896           3.506           3.885
  6400           5.997           0.289           5.177           3.311           3.902           3.512           3.891
  6410           5.997           0.289           5.177           3.316           3.909           3.518           3.897
  6420           5.997           0.289           5.177           3.321           3.915           3.524           3.903
  6430           5.997           0.289           5.177           3.326           3.921           3.530           3.910
  6440           5.997           0.289           5.177           3.332           3.927           3.536           3.916
  6450           5.997           0.289           5.177           3.337           3.933           3.542           3.922
  6460           5.997           0.289           5.177           3.342           3.939           3.548           3.928
  6470           5.997           0.289           5.177           3.347           3.945           3.554           3.934
  6480           5.997           0.289           5.177           3.352           3.951           3.560           3.940
  6490           5.997           0.289           5.177           3.357           3.957           3.566           3.946
  6500           5.997           0.289           5.177           3.363           3.963           3.572           3.952
  6510           5.997           0.289           5.177           3.368           3.969           3.578           3.958
  6520           5.997           0.289           5.177           3.373           3.975           3.584           3.964
  6530           5.997           0.289           5.177           3.378           3.981           3.591           3.970
  6540           5.997           0.289           5.177           3.383           3.988           3.597           3.977
  6550           5.997           0.289           5.177           3.388           3.994           3.603           3.983
  6560           5.997           0.289           5.177           3.394           4.000           3.609           3.989
  6570           5.997           0.289           5.177           3.399           4.006           3.615           3.995
  6580           5.997           0.289           5.177           3.404           4.012           3.621           4.001
  6590           5.997           0.289           5.177           3.409           4.018           3.627           4.007
  6600           5.997           0.289           5.177           3.414           4.024           3.633           4.013
  6610           5.997           0.289           5.177           3.419           4.030           3.639           4.019
  6620           5.997           0.289           5.177           3.425           4.036           3.645           4.025
  6630           5.997           0.289           5.178           3.430           4.042           3.651           4.031
  6640           5.997           0.289           5.178           3.435           4.048           3.657           4.037
  6650           5.997           0.289           5.178           3.440           4.054           3.663           4.044
  6660           5.997           0.289           5.178           3.445           4.060           3.669           4.050
  6670           5.997           0.289           5.178           3.450           4.066           3.676           4.056
  6680           5.997           0.289           5.178           3.456           4.073           3.682           4.062
  6690           5.997           0.289           5.178           3.461           4.079           3.688           4.068
  6700           5.997           0.289           5.178           3.466           4.085           3.694           4.074
  6710           5.997           0.289           5.178           3.471           4.091           3.700           4.080
  6720           5.997           0.289           5.178           3.476           4.097           3.706           4.086
  6730           5.997           0.289           5.178           3.481           4.103           3.712           4.092
  6740           5.997           0.289           5.178           3.487           4.109           3.718           4.098
  6750           5.997           0.289           5.178           3.492           4.115           3.724           4.104
  6760           5.997           0.289           5.178           3.497           4.121           3.730           4.111
  6770           5.997           0.289           5.178           3.502           4.127           3.736           4.117
  6780           5.997           0.289           5.178           3.507           4.133           3.742           4.123
  6790           5.997           0.289           5.178           3.512           4.139           3.748           4.129
  6800           5.997           0.289           5.178           3.518           4.145           3.755           4.135
  6810           5.997           0.289           5.178           3.523           4.152           3.761           4.141
  6820           5.997           0.289           5.178           3.528           4.158           3.767           4.147
  6830           5.997           0.289           5.178           3.533           4.164           3.773           4.153
  6840           5.997           0.289           5.178           3.538           4.170           3.779           4.159
  6850           5.997           0.289           5.178           3.543           4.176           3.785           4.165
  6860           5.997           0.289           5.178           3.549           4.182           3.791           4.171
  6870           5.997           0.289           5.178           3.554           4.188           3.797           4.177
  6880           5.997           0.289           5.178           3.559           4.194           3.803           4.184
  6890           5.997           0.289           5.178           3.564           4.200           3.809           4.190
  6900           5.997           0.289           5.178           3.569           4.206           3.815           4.196
  6910           5.997           0.289           5.178           3.575           4.212           3.821           4.202
  6920           5.997           0.289           5.178           3.580           4.218           3.827           4.208
  6930           5.997           0.289           5.178           3.585           4.224           3.834           4.214
  6940           5.997           0.289           5.178           3.590           4.230           3.840           4.220
  6950           5.997           0.289           5.178           3.595           4.237           3.846           4.226
  6960           5.997           0.289           5.178           3.600           4.243           3.852           4.232
  6970           5.997           0.289           5.178           3.606           4.249           3.858           4.238
  6980           5.997           0.289           5.178           3.611           4.255           3.864           4.244
  6990           5.997           0.289           5.178           3.616           4.261           3.870           4.251
  7000           5.997           0.289           5.179           3.621           4.267           3.876           4.257
  7010           5.997           0.289           5.179           3.626           4.273           3.882           4.263
  7020           5.997           0.289           5.179           3.631           4.279           3.888           4.269
  7030           5.997           0.289           5.179           3.637           4.285           3.894           4.275
  7040           5.997           0.289           5.179           3.642           4.291           3.900           4.281
  7050           5.997           0.289           5.179           3.647           4.297           3.906           4.287
  7060           5.997           0.289           5.179           3.652           4.303           3.912           4.293
  7070           5.997           0.289           5.179           3.657           4.309           3.919           4.299
  7080           5.997           0.289           5.179           3.662           4.316           3.925           4.305
  7090           5.997           0.289           5.179           3.668           4.322           3.931           4.311
  7100           5.997           0.289           5.179           3.673           4.328           3.937           4.318
  7110           5.997           0.289           5.179           3.678           4.334           3.943           4.324
  7120           5.997           0.289           5.179           3.683           4.340           3.949           4.330
  7130           5.997           0.289           5.179           3.688           4.346           3.955           4.336
  7140           5.997           0.289           5.179           3.693           4.352           3.961           4.342
  7150           5.997           0.289           5.179           3.699           4.358           3.967           4.348
  7160           5.997           0.289           5.179           3.704           4.364           3.973           4.354
  7170           5.997           0.289           5.179           3.709           4.370           3.979           4.360
  7180           5.997           0.289           5.179           3.714           4.376           3.985           4.366
  7190           5.997           0.289           5.179           3.719           4.382           3.991           4.372
  7200           5.997           0.289           5.179           3.724           4.388           3.998           4.378
  7210           5.997           0.289           5.179           3.730           4.395           4.004           4.385
  7220           5.997           0.289           5.179           3.735           4.401           4.010           4.391
  7230           5.997           0.289           5.179           3.740           4.407           4.016           4.397
  7240           5.997           0.289           5.179           3.745           4.413           4.022           4.403
  7250           5.997           0.289           5.179           3.750           4.419           4.028           4.409
  7260           5.997           0.289           5.179           3.755           4.425           4.034           4.415
  7270           5.997           0.289           5.179           3.761           4.431           4.040           4.421
  7280           5.997           0.289           5.179           3.766           4.437           4.046           4.427
  7290           5.997           0.289           5.179           3.771           4.443           4.052           4.433
  7300           5.997           0.289           5.179           3.776           4.449           4.058           4.439
  7310           5.997           0.289           5.179           3.781           4.455           4.064           4.445
  7320           5.997           0.289           5.179           3.786           4.461           4.070           4.452
  7330           5.997           0.289           5.179           3.792           4.467           4.077           4.458
  7340           5.997           0.289           5.179           3.797           4.474           4.083           4.464
  7350           5.997           0.289           5.179           3.802           4.480           4.089           4.470
  7360           5.997           0.289           5.179           3.807           4.486           4.095           4.476
  7370           5.997           0.289           5.179           3.812           4.492           4.101           4.482
  7380           5.997           0.289           5.179           3.817           4.498           4.107           4.488
  7390           5.997           0.289           5.179           3.823           4.504           4.113           4.494
  7400           5.997           0.289           5.179           3.828           4.510           4.119           4.500
  7410           5.997           0.289           5.179           3.833           4.516           4.125           4.506
  7420           5.997           0.289           5.179           3.838           4.522           4.131           4.512
  7430           5.997           0.289           5.180           3.843           4.528           4.137           4.519
  7440           5.997           0.289           5.180           3.848           4.534           4.143           4.525
  7450           5.997           0.289           5.180           3.854           4.540           4.149           4.531
  7460           5.997           0.289           5.180           3.859           4.546           4.156           4.537
  7470           5.997           0.289           5.180           3.864           4.553           4.162           4.543
  7480           5.997           0.289           5.180           3.869           4.559           4.168           4.549
  7490           5.997           0.289           5.180           3.874           4.565           4.174           4.555
  7500           5.998           0.289           5.180           3.879           4.571           4.180           4.561
  7510           5.998           0.289           5.180           3.885           4.577           4.186           4.567
  7520           5.998           0.289           5.180           3.890           4.583           4.192           4.573
  7530           5.998           0.289           5.180           3.895           4.589           4.198           4.579
  7540           5.998           0.289           5.180           3.900           4.595           4.204           4.585
  7550           5.998           0.289           5.180           3.905           4.601           4.210           4.592
  7560           5.998           0.289           5.180           3.910           4.607           4.216           4.598
  7570           5.998           0.289           5.180           3.916           4.613           4.222           4.604
  7580           5.998           0.289           5.180           3.921           4.619           4.228           4.610
  7590           5.998           0.289           5.180           3.926           4.625           4.235           4.616
  7600           5.998           0.289           5.180           3.931           4.631           4.241           4.622
  7610           5.998           0.289           5.180           3.936           4.638           4.247           4.628
  7620           5.998           0.289           5.180           3.941           4.644           4.253           4.634
  7630           5.998           0.289           5.180           3.947           4.650           4.259           4.640
  7640           5.998           0.289           5.180           3.952           4.656           4.265           4.646
  7650           5.998           0.289           5.180           3.957           4.662           4.271           4.652
  7660           5.998           0.289           5.180           3.962           4.668           4.277           4.659
  7670           5.998           0.289           5.180           3.967           4.674           4.283           4.665
  7680           5.998           0.289           5.180           3.972           4.680           4.289           4.671
  7690           5.998           0.289           5.180           3.978           4.686           4.295           4.677
  7700           5.998           0.289           5.180           3.983           4.692           4.301           4.683
  7710           5.998           0.289           5.180           3.988           4.698           4.307           4.689
  7720           5.998           0.289           5.180           3.993           4.704           4.314           4.695
  7730           5.998           0.289           5.180           3.998           4.710           4.320           4.701
  7740           5.998           0.289           5.180           4.003           4.717           4.326           4.707
  7750           5.998           0.289           5.180           4.009           4.723           4.332           4.713
  7760           5.998           0.289           5.180           4.014           4.729           4.338           4.719
  7770           5.998           0.289           5.180           4.019           4.735           4.344           4.726
  7780           5.998           0.289           5.180           4.024           4.741           4.350           4.732
  7790           5.998           0.289           5.180           4.029           4.747           4.356           4.738
  7800           5.998           0.289           5.180           4.034           4.753           4.362           4.744
  7810           5.998           0.289           5.180           4.040           4.759           4.368           4.750
  7820           5.998           0.289           5.180           4.045           4.765           4.374           4.756
  7830           5.998           0.289           5.180           4.050           4.771           4.380           4.762
  7840           5.998           0.289           5.180           4.055           4.777           4.386           4.768
  7850           5.998           0.289           5.180           4.060           4.783           4.393           4.774
  7860           5.998           0.289           5.180           4.065           4.790           4.399           4.780
  7870           5.998           0.289           5.180           4.071           4.796           4.405           4.786
  7880           5.998           0.289           5.180           4.076           4.802           4.411           4.793
  7890           5.998           0.289           5.180           4.081           4.808           4.417           4.799
  7900           5.998           0.289           5.180           4.086           4.814           4.423           4.805
  7910           5.998           0.289           5.180           4.091           4.820           4.429           4.811
  7920           5.998           0.289           5.180           4.096           4.826           4.435           4.817
  7930           5.998           0.289           5.180           4.102           4.832           4.441           4.823
  7940           5.998           0.289           5.180           4.107           4.838           4.447           4.829
  7950           5.998           0.289           5.180           4.112           4.844           4.453           4.835
  7960           5.998           0.289           5.181           4.117           4.850           4.459           4.841
  7970           5.998           0.289           5.181           4.122           4.856           4.465           4.847
  7980           5.998           0.289           5.181           4.127           4.862           4.472           4.853
  7990           5.998           0.289           5.181           4.133           4.869           4.478           4.860
  8000           5.998           0.289           5.181           4.138           4.875           4.484           4.866
  8010           5.998           0.289           5.181           4.143           4.881           4.490           4.872
  8020           5.998           0.289           5.181           4.148           4.887           4.496           4.878
  8030           5.998           0.289           5.181           4.153           4.893           4.502           4.884
  8040           5.998           0.289           5.181           4.159           4.899           4.508           4.890
  8050           5.998           0.289           5.181           4.164           4.905           4.514           4.896
  8060           5.998           0.289           5.181           4.169           4.911           4.520           4.902
  8070           5.998           0.289           5.181           4.174           4.917           4.526           4.908
  8080           5.998           0.289           5.181           4.179           4.923           4.532           4.914
  8090           5.998           0.289           5.181           4.184           4.929           4.538           4.920
  8100           5.998           0.289           5.181           4.190           4.935           4.544           4.926
  8110           5.998           0.289           5.181           4.195           4.941           4.551           4.933
  8120           5.998           0.289           5.181           4.200           4.948           4.557           4.939
  8130           5.998           0.289           5.181           4.205           4.954           4.563           4.945
  8140           5.998           0.289           5.181           4.210           4.960           4.569           4.951
  8150           5.998           0.289           5.181           4.215           4.966           4.575           4.957
  8160           5.998           0.289           5.181           4.221           4.972           4.581           4.963
  8170           5.998           0.289           5.181           4.226           4.978           4.587           4.969
  8180           5.998           0.289           5.181           4.231           4.984           4.593           4.975
  8190           5.998           0.289           5.181           4.236           4.990           4.599           4.981
  8200           5.998           0.289           5.181           4.241           4.996           4.605           4.987
  8210           5.998           0.289           5.181           4.246           5.002           4.611           4.993
  8220           5.998           0.289           5.181           4.252           5.008           4.617           5.000
  8230           5.998           0.289           5.181           4.257           5.014           4.623           5.006
  8240           5.998           0.289           5.181           4.262           5.020           4.630           5.012
  8250           5.998           0.289           5.181           4.267           5.027           4.636           5.018
  8260           5.998           0.289           5.181           4.272           5.033           4.642           5.024
  8270           5.998           0.289           5.181           4.277           5.039           4.648           5.030
  8280           5.998           0.289           5.181           4.283           5.045           4.654           5.036
  8290           5.998           0.289           5.181           4.288           5.051           4.660           5.042
  8300           5.998           0.289           5.181           4.293           5.057           4.666           5.048
  8310           5.998           0.289           5.181           4.298           5.063           4.672           5.054
  8320           5.998           0.289           5.181           4.303           5.069           4.678           5.060
  8330           5.998           0.289           5.181           4.308           5.075           4.684           5.067
  8340           5.998           0.289           5.181           4.314           5.081           4.690           5.073
  8350           5.998           0.289           5.181           4.319           5.087           4.696           5.079
  8360           5.998           0.289           5.181           4.324           5.093           4.702           5.085
  8370           5.998           0.289           5.181           4.329           5.099           4.709           5.091
  8380           5.998           0.289           5.181           4.334           5.106           4.715           5.097
  8390           5.998           0.289           5.181           4.339           5.112           4.721           5.103
  8400           5.998           0.289           5.181           4.345           5.118           4.727           5.109
  8410           5.998           0.289           5.181           4.350           5.124           4.733           5.115
  8420           5.998           0.289           5.181           4.355           5.130           4.739           5.121
  8430           5.998           0.289           5.181           4.360           5.136           4.745           5.127
  8440           5.998           0.289           5.181           4.365           5.142           4.751           5.133
  8450           5.998           0.289           5.181           4.370           5.148           4.757           5.140
  8460           5.998           0.289           5.181           4.376           5.154           4.763           5.146
  8470           5.998           0.289           5.181           4.381           5.160           4.769           5.152
  8480           5.998           0.289           5.181           4.386           5.166           4.775           5.158
  8490           5.998           0.289           5.181           4.391           5.172           4.782           5.164
  8500           5.998           0.289           5.181           4.396           5.178           4.788           5.170
  8510           5.998           0.289           5.181           4.401           5.185           4.794           5.176
  8520           5.998           0.289           5.181           4.407           5.191           4.800           5.182
  8530           5.998           0.289           5.181           4.412           5.197           4.806           5.188
  8540           5.998           0.289           5.181           4.417           5.203           4.812           5.194
  8550           5.998           0.289           5.181           4.422           5.209           4.818           5.200
  8560           5.998           0.289           5.181           4.427           5.215           4.824           5.207
  8570           5.998           0.289           5.181           4.432           5.221           4.830           5.213
  8580           5.998           0.289           5.181           4.438           5.227           4.836           5.219
  8590           5.998           0.289           5.181           4.443           5.233           4.842           5.225
  8600           5.998           0.289           5.181           4.448           5.239           4.848           5.231
  8610           5.998           0.289           5.181           4.453           5.245           4.854           5.237
  8620           5.998           0.289           5.181           4.458           5.251           4.861           5.243
  8630           5.998           0.289           5.182           4.463           5.258           4.867           5.249
  8640           5.998           0.289           5.182           4.469           5.264           4.873           5.255
  8650           5.998           0.289           5.182           4.474           5.270           4.879           5.261
  8660           5.998           0.289           5.182           4.479           5.276           4.885           5.267
  8670           5.998           0.289           5.182           4.484           5.282           4.891           5.274
  8680           5.998           0.289           5.182           4.489           5.288           4.897           5.280
  8690           5.998           0.289           5.182           4.494           5.294           4.903           5.286
  8700           5.998           0.289           5.182           4.500           5.300           4.909           5.292
  8710           5.998           0.289           5.182           4.505           5.306           4.915           5.298
  8720           5.998           0.289           5.182           4.510           5.312           4.921           5.304
  8730           5.998           0.289           5.182           4.515           5.318           4.927           5.310
  8740           5.998           0.289           5.182           4.520           5.324           4.933           5.316
  8750           5.998           0.289           5.182           4.525           5.330           4.940           5.322
  8760           5.998           0.289           5.182           4.531           5.337           4.946           5.328
  8770           5.998           0.289           5.182           4.536           5.343           4.952           5.334
  8780           5.998           0.289           5.182           4.541           5.349           4.958           5.340
  8790           5.998           0.289           5.182           4.546           5.355           4.964           5.347
  8800           5.998           0.289           5.182           4.551           5.361           4.970           5.353
  8810           5.998           0.289           5.182           4.557           5.367           4.976           5.359
  8820           5.998           0.289           5.182           4.562           5.373           4.982           5.365
  8830           5.998           0.289           5.182           4.567           5.379           4.988           5.371
  8840           5.998           0.289           5.182           4.572           5.385           4.994           5.377
  8850           5.998           0.289           5.182           4.577           5.391           5.000           5.383
  8860           5.998           0.289           5.182           4.582           5.397           5.006           5.389
  8870           5.998           0.289           5.182           4.588           5.403           5.012           5.395
  8880           5.998           0.289           5.182           4.593           5.409           5.019           5.401
  8890           5.998           0.289           5.182           4.598           5.416           5.025           5.407
  8900           5.998           0.289           5.182           4.603           5.422           5.031           5.414
  8910           5.998           0.289           5.182           4.608           5.428           5.037           5.420
  8920           5.998           0.289           5.182           4.613           5.434           5.043           5.426
  8930           5.998           0.289           5.182           4.619           5.440           5.049           5.432
  8940           5.998           0.289           5.182           4.624           5.446           5.055           5.438
  8950           5.998           0.289           5.182           4.629           5.452           5.061           5.444
  8960           5.998           0.289           5.182           4.634           5.458           5.067           5.450
  8970           5.998           0.289           5.182           4.639           5.464           5.073           5.456
  8980           5.998           0.289           5.182           4.644           5.470           5.079           5.462
  8990           5.998           0.289           5.182           4.650           5.476           5.085           5.468
  9000           5.998           0.289           5.182           4.655           5.482           5.092           5.474
  9010           5.998           0.289           5.182           4.660           5.489           5.098           5.481
  9020           5.998           0.289           5.182           4.665           5.495           5.104           5.487
  9030           5.998           0.289           5.182           4.670           5.501           5.110           5.493
  9040           5.998           0.289           5.182           4.675           5.507           5.116           5.499
  9050           5.998           0.289           5.182           4.681           5.513           5.122           5.505
  9060           5.998           0.289           5.182           4.686           5.519           5.128           5.511
  9070           5.998           0.289           5.182           4.691           5.525           5.134           5.517
  9080           5.998           0.289           5.182           4.696           5.531           5.140           5.523
  9090           5.998           0.289           5.182           4.701           5.537           5.146           5.529
  9100           5.998           0.289           5.182           4.706           5.543           5.152           5.535
  9110           5.998           0.289           5.182           4.712           5.549           5.158           5.541
  9120           5.998           0.289           5.182           4.717           5.555           5.164           5.547
  9130           5.998           0.289           5.182           4.722           5.561           5.171           5.554
  9140           5.998           0.289           5.182           4.727           5.568           5.177           5.560
  9150           5.998           0.289           5.182           4.732           5.574           5.183           5.566
  9160           5.998           0.289           5.182           4.737           5.580           5.189           5.572
  9170           5.998           0.289           5.182           4.743           5.586           5.195           5.578
  9180           5.998           0.289           5.182           4.748           5.592           5.201           5.584
  9190           5.998           0.289           5.182           4.753           5.598           5.207           5.590
  9200           5.998           0.289           5.182           4.758           5.604           5.213           5.596
  9210           5.998           0.289           5.182           4.763           5.610           5.219           5.602
  9220           5.998           0.289           5.182           4.768           5.616           5.225           5.608
  9230           5.998           0.289           5.182           4.774           5.622           5.231           5.614
  9240           5.998           0.289           5.182           4.779           5.628           5.237           5.621
  9250           5.998           0.289           5.182           4.784           5.634           5.244           5.627
  9260           5.998           0.289           5.182           4.789           5.640           5.250           5.633
  9270           5.998           0.289           5.182           4.794           5.647           5.256           5.639
  9280           5.998           0.289           5.182           4.799           5.653           5.262           5.645
  9290           5.998           0.289           5.182           4.805           5.659           5.268           5.651
  9300           5.998           0.289           5.182           4.810           5.665           5.274           5.657
  9310           5.998           0.289           5.182           4.815           5.671           5.280           5.663
  9320           5.998           0.289           5.182           4.820           5.677           5.286           5.669
  9330           5.998           0.289           5.182           4.825           5.683           5.292           5.675
  9340           5.998           0.289           5.182           4.830           5.689           5.298           5.681
  9350           5.998           0.289           5.182           4.836           5.695           5.304           5.688
  9360           5.998           0.289           5.182           4.841           5.701           5.310           5.694
  9370           5.998           0.289           5.182           4.846           5.707           5.316           5.700
  9380           5.998           0.289           5.182           4.851           5.713           5.323           5.706
  9390           5.998           0.289           5.182           4.856           5.720           5.329           5.712
  9400           5.998           0.289           5.182           4.861           5.726           5.335           5.718
  9410           5.998           0.289           5.182           4.867           5.732           5.341           5.724
  9420           5.998           0.289           5.182           4.872           5.738           5.347           5.730
  9430           5.998           0.289           5.182           4.877           5.744           5.353           5.736
  9440           5.998           0.289           5.182           4.882           5.750           5.359           5.742
  9450           5.998           0.289           5.182           4.887           5.756           5.365           5.748
  9460           5.998           0.289           5.182           4.892           5.762           5.371           5.754
  9470           5.998           0.289           5.182           4.898           5.768           5.377           5.761
  9480           5.998           0.289           5.182           4.903           5.774           5.383           5.767
  9490           5.998           0.289           5.183           4.908           5.780           5.389           5.773
  9500           5.998           0.289           5.183           4.913           5.786           5.395           5.779
  9510           5.998           0.289           5.183           4.918           5.792           5.402           5.785
  9520           5.998           0.289           5.183           4.923           5.799           5.408           5.791
  9530           5.998           0.289           5.183           4.929           5.805           5.414           5.797
  9540           5.998           0.289           5.183           4.934           5.811           5.420           5.803
  9550           5.998           0.289           5.183           4.939           5.817           5.426           5.809
  9560           5.998           0.289           5.183           4.944           5.823           5.432           5.815
  9570           5.998           0.289           5.183           4.949           5.829           5.438           5.821
  9580           5.998           0.289           5.183           4.955           5.835           5.444           5.828
  9590           5.998           0.289           5.183           4.960           5.841           5.450           5.834
  9600           5.998           0.289           5.183           4.965           5.847           5.456           5.840
  9610           5.998           0.289           5.183           4.970           5.853           5.462           5.846
  9620           5.998           0.289           5.183           4.975           5.859           5.468           5.852
  9630           5.998           0.289           5.183           4.980           5.865           5.475           5.858
  9640           5.998           0.289           5.183           4.986           5.872           5.481           5.864
  9650           5.998           0.289           5.183           4.991           5.878           5.487           5.870
  9660           5.998           0.289           5.183           4.996           5.884           5.493           5.876
  9670           5.998           0.289           5.183           5.001           5.890           5.499           5.882
  9680           5.999           0.289           5.183           5.006           5.896           5.505           5.888
  9690           5.999           0.289           5.183           5.011           5.902           5.511           5.894
  9700           5.999           0.289           5.183           5.017           5.908           5.517           5.901
  9710           5.999           0.289           5.183           5.022           5.914           5.523           5.907
  9720           5.999           0.289           5.183           5.027           5.920           5.529           5.913
  9730           5.999           0.289           5.183           5.032           5.926           5.535           5.919
  9740           5.999           0.289           5.183           5.037           5.932           5.541           5.925
  9750           5.999           0.289           5.183           5.042           5.938           5.547           5.931
  9760           5.999           0.289           5.183           5.048           5.944           5.554           5.937
  9770           5.999           0.289           5.183           5.053           5.951           5.560           5.943
  9780           5.999           0.289           5.183           5.058           5.957           5.566           5.949
  9790           5.999           0.289           5.183           5.063           5.963           5.572           5.955
  9800           5.999           0.289           5.183           5.068           5.969           5.578           5.961
  9810           5.999           0.289           5.183           5.073           5.975           5.584           5.968
  9820           5.999           0.289           5.183           5.079           5.981           5.590           5.974
  9830           5.999           0.289           5.183           5.084           5.987           5.596           5.980
  9840           5.999           0.289           5.183           5.089           5.993           5.602           5.986
  9850           5.999           0.289           5.183           5.094           5.999           5.608           5.992
  9860           5.999           0.289           5.183           5.099           6.005           5.614           5.998
  9870           5.999           0.289           5.183           5.104           6.011           5.620           6.004
  9880           5.999           0.289           5.183           5.110           6.017           5.627           6.010
  9890           5.999           0.289           5.183           5.115           6.024           5.633           6.016
  9900           5.999           0.289           5.183           5.120           6.030           5.639           6.022
  9910           5.999           0.289           5.183           5.125           6.036           5.645           6.028
  9920           5.999           0.289           5.183           5.130           6.042           5.651           6.035
  9930           5.999           0.289           5.183           5.135           6.048           5.657           6.041
  9940           5.999           0.289           5.183           5.141           6.054           5.663           6.047
  9950           5.999           0.289           5.183           5.146           6.060           5.669           6.053
  9960           5.999           0.289           5.183           5.151           6.066           5.675           6.059
  9970           5.999           0.289           5.183           5.156           6.072           5.681           6.065
  9980           5.999           0.289           5.183           5.161           6.078           5.687           6.071
  9990           5.999           0.289           5.183           5.166           6.084           5.694           6.077
 10000           5.999           0.289           5.183           5.172           6.090           5.696           6.083
